t,ax,ay,az,wx,wy,wz
0.00947243,9.51708766,-0.46121271,2.29874271,0.01130291,-0.00386828,0.00615827
0.02068943,9.50244599,-0.40996685,2.38659275,0.00397253,-0.00264655,0.00493654
0.03190643,9.57565435,-0.34407932,2.42319693,0.00275080,0.00101864,0.00982347
0.04312342,9.48048348,-0.33675849,2.54765116,0.00152907,0.00101864,-0.00239384
0.05431521,9.47316264,-0.59298777,2.32802606,-0.01435343,0.00346210,-0.00239384
0.06550699,9.48048348,-0.45389187,2.26213853,-0.00580131,0.00346210,-0.00728076
0.07669878,9.46584180,-0.68815865,2.15964681,-0.00580131,0.00712729,-0.00239384
0.08789057,9.51708766,-0.59298777,2.16696765,-0.00213612,-0.00509001,0.00371481
0.09911251,9.44387929,-0.59298777,2.11572179,0.00763772,-0.00631174,0.00371481
0.11033446,9.50244599,-0.45389187,2.32070522,0.00763772,-0.00264655,0.00615827
0.12155640,9.47316264,-0.44657104,2.48908446,0.01496810,-0.00386828,0.00493654
0.13277835,9.49512515,-0.38800434,2.51836781,-0.00091439,0.00346210,0.00249308
0.14397115,9.50244599,-0.40264602,2.43783861,-0.00457958,0.00346210,-0.00728076
0.15516394,9.47316264,-0.65887530,2.34266773,-0.00457958,0.00346210,-0.00239384
0.16635674,9.54637101,-0.71744199,2.10840096,0.00030734,0.00712729,-0.00239384
0.17754954,9.54637101,-0.70280032,2.10840096,0.00030734,-0.00631174,-0.00117211
0.18873602,9.48780431,-0.62227112,2.23285518,0.00519426,-0.00753348,0.00249308
0.19992250,9.52440850,-0.43192936,2.46712195,0.00885945,-0.00875521,0.00615827
0.21110898,9.47316264,-0.47585438,2.67942622,0.01374637,-0.00875521,0.00371481
0.22229546,9.53905017,-0.46853355,2.47444279,0.00519426,0.00590556,0.00127135
0.23348695,9.52440850,-0.52710024,2.45980112,-0.00457958,0.00224037,-0.00361557
0.24467844,9.57565435,-0.55638359,2.32802606,-0.00824478,0.00468383,-0.00483730
0.25586993,9.56101268,-0.69547948,2.24017602,-0.00824478,0.00346210,-0.00605903
0.26706141,9.50976682,-0.57834610,2.12304263,-0.00091439,0.00101864,-0.00361557
0.27826917,9.46584180,-0.57102526,2.25481769,0.01130291,-0.00264655,0.00127135
0.28947693,9.56101268,-0.50513773,2.39391359,0.01130291,-0.00142482,-0.00117211
0.30068469,9.44387929,-0.29283347,2.51836781,0.00030734,0.00101864,0.00371481
0.31189245,9.50244599,-0.29283347,2.45980112,-0.00702304,0.00224037,0.00249308
0.32308543,9.59761686,-0.37336267,2.34998857,0.00397253,0.00101864,-0.00239384
0.33427840,9.44387929,-0.49781689,2.34266773,-0.01068824,0.00468383,-0.00850249
0.34547138,9.48780431,-0.70280032,2.11572179,-0.00702304,0.00468383,-0.00972422
0.35666436,9.59029603,-0.76136701,2.21089267,-0.00091439,-0.00142482,0.00493654
0.36786789,9.50244599,-0.74672534,2.24749685,-0.00213612,-0.00509001,0.00249308
0.37907141,9.51708766,-0.54906275,2.32802606,0.00152907,-0.00509001,0.00615827
0.39027494,9.50244599,-0.51977940,2.35730940,0.01374637,0.00224037,0.00493654
0.40147847,9.52440850,-0.29283347,2.47444279,-0.00213612,-0.00264655,0.00004962
0.41270322,9.45852097,-0.38068351,2.34266773,-0.00457958,-0.00142482,0.00004962
0.42392796,9.49512515,-0.44657104,2.29142187,-0.00580131,0.00101864,-0.00239384
0.43515271,9.53172933,-0.68815865,2.33534689,-0.00702304,-0.00142482,-0.00728076
0.44637746,9.58297519,-0.83457538,2.31338438,-0.00702304,-0.00020309,-0.00483730
0.45754921,9.48780431,-0.71744199,2.26213853,0.00275080,0.00224037,-0.00361557
0.46872097,9.48780431,-0.74672534,2.31338438,0.00030734,-0.00386828,0.00249308
0.47989273,9.51708766,-0.50513773,2.39391359,0.00275080,0.00101864,0.00127135
0.49106449,9.42923762,-0.40264602,2.37927191,0.00885945,0.00224037,0.00371481
0.50227171,9.52440850,-0.30015430,2.28410104,0.00885945,0.00834902,0.00615827
0.51347893,9.50976682,-0.30747514,2.18160932,-0.00457958,0.00346210,0.00127135
0.52468616,9.59029603,-0.38800434,2.31338438,-0.00091439,0.00101864,-0.00239384
0.53589338,9.46584180,-0.51977940,2.30606355,-0.00457958,0.00101864,-0.01094595
0.54708666,9.54637101,-0.71012116,2.32070522,-0.00335785,-0.00142482,-0.00239384
0.55827993,9.52440850,-0.75404618,2.38659275,-0.00213612,-0.00020309,-0.00117211
0.56947321,9.49512515,-0.66619614,2.43051777,0.00030734,-0.00020309,-0.00117211
0.58066648,9.50976682,-0.44657104,2.34998857,0.01374637,-0.00142482,0.00493654
0.59190100,9.59761686,-0.27819179,2.40855526,0.00152907,-0.00264655,0.00493654
0.60313553,9.51708766,-0.39532518,2.31338438,0.00275080,0.00224037,0.00004962
0.61437005,9.47316264,-0.28551263,2.22553434,-0.00580131,0.00224037,-0.00239384
0.62560457,9.51708766,-0.46121271,2.28410104,-0.01190997,0.00224037,-0.00605903
0.63679951,9.49512515,-0.66619614,2.25481769,0.00397253,-0.00386828,-0.00117211
0.64799446,9.48048348,-0.67351697,2.36463024,0.00519426,0.00101864,-0.01216768
0.65918940,9.50976682,-0.66619614,2.46712195,0.00275080,-0.00020309,0.00004962
0.67038435,9.51708766,-0.65887530,2.41587610,-0.01190997,0.00224037,-0.00483730
0.68156260,9.47316264,-0.49049606,2.37195108,0.00152907,0.00590556,0.00493654
0.69274086,9.45120013,-0.45389187,2.32070522,0.00030734,-0.00020309,-0.00117211
0.70391911,9.55369184,-0.36604183,2.06447594,0.00641599,0.00224037,0.00738000
0.71509737,9.53905017,-0.46121271,2.29874271,0.00275080,-0.00020309,-0.00361557
0.72629017,9.50976682,-0.57102526,2.40123442,0.00152907,0.00101864,-0.00361557
0.73748296,9.54637101,-0.73208367,2.59889701,-0.00946651,-0.00264655,-0.00605903
0.74867576,9.49512515,-0.71744199,2.66478454,-0.00335785,-0.00142482,0.00004962
0.75986856,9.64154188,-0.67351697,2.36463024,0.00275080,0.01079248,0.00249308
0.77107555,9.58297519,-0.55638359,2.18160932,0.00885945,0.00712729,0.00615827
0.78228253,9.49512515,-0.33675849,2.03519259,0.01130291,0.00712729,0.00004962
0.79348952,9.46584180,-0.27087096,1.99126757,0.00885945,0.00224037,0.00249308
0.80469650,9.51708766,-0.34407932,2.39391359,-0.00335785,-0.00509001,-0.00117211
0.81591272,9.44387929,-0.46853355,2.63550120,-0.00824478,-0.00875521,-0.00483730
0.82712895,9.44387929,-0.51977940,2.71603040,-0.00213612,-0.00020309,-0.00850249
0.83834517,9.40727511,-0.65887530,2.62085952,0.00519426,0.00101864,-0.00483730
0.84956139,9.46584180,-0.63691279,2.29142187,0.00397253,0.00590556,0.00004962
0.86077464,9.52440850,-0.51977940,2.07179677,-0.00457958,0.00346210,0.00127135
0.87198788,9.49512515,-0.47585438,2.00590924,-0.00335785,0.00101864,-0.00483730
0.88320112,9.51708766,-0.35140016,2.09375928,-0.00091439,0.00101864,0.00493654
0.89441437,9.51708766,-0.41728769,2.34998857,0.01008118,-0.00631174,-0.00117211
0.90559191,9.51708766,-0.44657104,2.59889701,0.00397253,-0.00142482,-0.00117211
0.91676944,9.50244599,-0.55638359,2.59889701,0.00519426,-0.00020309,-0.00483730
0.92794698,9.50976682,-0.51245857,2.51836781,-0.00091439,0.00101864,-0.00117211
0.93912452,9.49512515,-0.60030861,2.29874271,-0.00335785,0.00346210,0.00249308
0.95031923,9.59761686,-0.61495028,2.10840096,0.00275080,0.00712729,-0.00361557
0.96151394,9.59761686,-0.56370442,2.07911761,0.00763772,0.00101864,-0.00361557
0.97270864,9.45852097,-0.59298777,2.15964681,0.01008118,0.00224037,-0.00605903
0.98390335,9.48780431,-0.62959195,2.56229283,0.00030734,-0.00386828,-0.00117211
0.99509639,9.50976682,-0.50513773,2.59157618,-0.00946651,-0.00386828,-0.00239384
1.00628942,9.46584180,-0.51245857,2.62085952,-0.00457958,-0.00142482,0.00371481
1.01748246,9.56833352,-0.57102526,2.55497199,-0.00702304,0.00468383,-0.00117211
1.02867550,9.56833352,-0.35140016,2.10108012,-0.00091439,0.00590556,0.00738000
1.03988546,9.51708766,-0.59298777,2.01323008,-0.00702304,0.00101864,0.00982347
1.05109543,9.50976682,-0.50513773,2.13036347,-0.00946651,-0.00264655,0.00127135
1.06230539,9.42923762,-0.38068351,2.29874271,0.00397253,-0.00509001,0.00249308
1.07351536,9.53905017,-0.46121271,2.58425534,0.00641599,-0.00509001,-0.00117211
1.08470386,9.49512515,-0.49049606,2.59157618,0.00641599,-0.00142482,0.00004962
1.09589237,9.48780431,-0.54906275,2.45980112,-0.00213612,0.00590556,-0.00728076
1.10708088,9.45852097,-0.49781689,2.28410104,-0.00702304,0.00712729,-0.00361557
1.11826938,9.62690021,-0.46853355,2.04983426,0.00885945,-0.00386828,-0.00361557
1.12947589,9.53172933,-0.51977940,2.20357183,0.00641599,-0.00020309,0.00249308
1.14068240,9.56101268,-0.43192936,2.17428849,0.00641599,0.00101864,-0.00239384
1.15188891,9.50244599,-0.62227112,2.47444279,-0.00335785,-0.00997694,0.00371481
1.16309541,9.44387929,-0.40996685,2.59157618,-0.00580131,-0.00020309,0.00004962
1.17431194,9.48048348,-0.65155446,2.49640530,-0.00091439,0.00468383,-0.00361557
1.18552846,9.45120013,-0.58566693,2.43051777,-0.00702304,0.00590556,-0.00361557
1.19674498,9.52440850,-0.65155446,2.28410104,-0.00213612,0.00224037,-0.00361557
1.20796150,9.53905017,-0.54174191,2.24749685,-0.00335785,0.00101864,-0.00117211
1.21916950,9.43655846,-0.52710024,2.30606355,-0.00335785,-0.00264655,-0.00483730
1.23037750,9.48780431,-0.55638359,2.32802606,0.00519426,-0.00386828,-0.00239384
1.24158549,9.50244599,-0.57102526,2.47444279,0.00519426,-0.00386828,-0.00483730
1.25279349,9.44387929,-0.45389187,2.37927191,0.00152907,0.00101864,-0.00117211
1.26397371,9.50976682,-0.58566693,2.37195108,-0.00213612,0.00468383,0.00249308
1.27515393,9.47316264,-0.55638359,2.26213853,0.00152907,0.00712729,-0.00483730
1.28633416,9.45120013,-0.60030861,2.27678020,-0.00213612,0.00224037,0.00127135
1.29751438,9.51708766,-0.62959195,2.34998857,0.00152907,-0.00020309,-0.00605903
1.30870163,9.50244599,-0.58566693,2.21821351,-0.00091439,-0.00386828,0.00004962
1.31988889,9.50244599,-0.68083781,2.37927191,-0.00335785,-0.00264655,-0.00361557
1.33107615,9.57565435,-0.56370442,2.32070522,0.00397253,-0.00509001,-0.00239384
1.34226340,9.50244599,-0.37336267,2.41587610,0.01252464,-0.00020309,-0.00117211
1.35348016,9.45852097,-0.31479598,2.40123442,0.00030734,0.00101864,0.00615827
1.36469692,9.53905017,-0.35140016,2.25481769,-0.00457958,-0.00386828,-0.00361557
1.37591368,9.48780431,-0.39532518,2.33534689,-0.00946651,-0.00631174,-0.00239384
1.38713044,9.51708766,-0.60030861,2.33534689,0.00275080,-0.00142482,0.00127135
1.39832419,9.50244599,-0.59298777,2.35730940,-0.00457958,0.00101864,-0.00117211
1.40951794,9.56101268,-0.72476283,2.41587610,-0.00091439,-0.00264655,0.00127135
1.42071170,9.51708766,-0.70280032,2.53300948,0.00030734,-0.00386828,0.00127135
1.43190545,9.46584180,-0.49049606,2.27678020,0.00641599,-0.00142482,-0.00361557
1.44309819,9.53905017,-0.30747514,2.47444279,0.00519426,0.00346210,0.00738000
1.45429093,9.50244599,-0.30015430,2.37195108,0.00397253,0.00224037,-0.00239384
1.46548367,9.50244599,-0.36604183,2.41587610,0.00763772,0.00101864,-0.00117211
1.47667640,9.46584180,-0.56370442,2.32802606,-0.00580131,0.00346210,-0.00728076
1.48790991,9.63422105,-0.71744199,2.33534689,-0.00457958,-0.00264655,-0.00361557
1.49914342,9.50976682,-0.83457538,2.28410104,0.00397253,-0.00386828,0.00127135
1.51037693,9.51708766,-0.74672534,2.30606355,0.01252464,0.00346210,-0.00117211
1.52161044,9.51708766,-0.46853355,2.40123442,0.00641599,-0.00142482,0.00371481
1.53278416,9.53172933,-0.27087096,2.45248028,0.00641599,-0.00264655,0.00493654
1.54395789,9.56101268,-0.15373757,2.42319693,0.00641599,0.00224037,0.00004962
1.55513161,9.46584180,-0.32211681,2.32802606,0.00030734,-0.00509001,-0.00117211
1.56630534,9.44387929,-0.58566693,2.25481769,-0.00457958,-0.00020309,-0.00972422
1.57751012,9.45852097,-0.68815865,2.22553434,-0.00946651,0.00468383,-0.00605903
1.58871490,9.49512515,-0.76136701,2.18893016,-0.00213612,0.00224037,-0.00239384
1.59991968,9.47316264,-0.76868785,2.35730940,-0.00213612,-0.00509001,-0.00239384
1.61112446,9.47316264,-0.51977940,2.44515944,0.00275080,0.00101864,0.00493654
1.62232196,9.56101268,-0.42460853,2.44515944,0.00397253,-0.00386828,0.00860174
1.63351947,9.48780431,-0.19766259,2.37927191,-0.00213612,0.00712729,0.00004962
1.64471698,9.45852097,-0.24890845,2.34998857,0.00030734,0.00346210,0.00004962
1.65591449,9.59029603,-0.42460853,2.32070522,-0.00824478,0.00468383,-0.00728076
1.66710997,9.48780431,-0.65887530,2.29142187,0.00152907,0.00712729,-0.01094595
1.67830545,9.51708766,-0.68815865,2.37927191,0.00030734,0.00712729,-0.00972422
1.68950093,9.56833352,-0.90046291,2.23285518,0.00030734,0.00346210,-0.00605903
1.70069641,9.47316264,-0.62959195,2.30606355,0.00152907,-0.00264655,0.00371481
1.71192515,9.53172933,-0.51977940,2.37195108,0.01008118,-0.00142482,0.00371481
1.72315389,9.44387929,-0.34407932,2.34266773,0.01130291,-0.00386828,0.00493654
1.73438263,9.50976682,-0.23426677,2.37195108,0.00397253,-0.00142482,-0.00361557
1.74561137,9.59761686,-0.39532518,2.38659275,-0.00457958,0.00101864,-0.00483730
1.75680786,9.53172933,-0.61495028,2.43051777,-0.00213612,0.00468383,-0.00483730
1.76800436,9.54637101,-0.56370442,2.36463024,-0.00580131,0.00468383,-0.00972422
1.77920085,9.53172933,-0.98099211,2.21089267,-0.00213612,-0.00020309,-0.00850249
1.79039735,9.47316264,-0.79797120,2.26213853,-0.00213612,0.00101864,0.00127135
1.80159688,9.50244599,-0.68815865,2.26213853,0.00275080,0.00101864,0.00860174
1.81279641,9.54637101,-0.40264602,2.33534689,0.01130291,-0.00142482,0.01348866
1.82399595,9.50244599,-0.23426677,2.33534689,0.00885945,-0.00142482,0.00615827
1.83519548,9.57565435,-0.20498343,2.43783861,-0.00457958,0.00224037,-0.00605903
1.84637100,9.52440850,-0.32211681,2.51104697,-0.01313170,0.00590556,-0.00361557
1.85754651,9.55369184,-0.56370442,2.33534689,-0.01435343,0.00346210,-0.00972422
1.86872202,9.48048348,-0.71744199,2.20357183,-0.00946651,0.00101864,-0.00850249
1.87989753,9.48780431,-0.87850040,2.22553434,0.00885945,0.00101864,0.00004962
1.89112449,9.53172933,-0.68815865,2.33534689,0.00885945,0.00101864,0.00249308
1.90235144,9.50244599,-0.45389187,2.43783861,0.00519426,-0.00142482,0.00860174
1.91357839,9.48780431,-0.21962510,2.43783861,0.00641599,-0.00020309,0.00860174
1.92480534,9.56101268,-0.20498343,2.48176363,0.00641599,-0.00020309,0.00004962
1.93600386,9.48780431,-0.23426677,2.48908446,0.00030734,0.00101864,-0.00605903
1.94720238,9.45852097,-0.47585438,2.27678020,-0.00335785,0.00712729,-0.01094595
1.95840091,9.49512515,-0.61495028,2.26213853,-0.00824478,-0.00020309,-0.00483730
1.96959943,9.48780431,-0.79065036,2.21821351,-0.00457958,-0.00753348,0.00249308
1.98079771,9.53172933,-0.74672534,2.29874271,-0.00335785,0.00101864,0.00249308
1.99199599,9.50976682,-0.69547948,2.37195108,0.01374637,0.00346210,0.00249308
2.00319427,9.48780431,-0.42460853,2.37927191,0.01618983,0.00101864,0.00860174
2.01439255,9.42191678,-0.18302092,2.45980112,0.00763772,-0.00509001,0.00615827
2.02557051,9.46584180,-0.24158761,2.43783861,-0.00335785,-0.00142482,-0.00361557
2.03674847,9.46584180,-0.37336267,2.34998857,-0.00335785,-0.00020309,-0.00605903
2.04792643,9.43655846,-0.54174191,2.28410104,-0.00824478,-0.00020309,-0.00361557
2.05910438,9.57565435,-0.83457538,2.33534689,-0.00457958,-0.00631174,-0.00117211
2.07029891,9.47316264,-0.76136701,2.32802606,0.00152907,-0.00142482,0.00493654
2.08149344,9.50244599,-0.69547948,2.34266773,0.00519426,-0.00264655,0.00371481
2.09268796,9.58297519,-0.51977940,2.29142187,0.01374637,-0.00509001,0.00860174
2.10388249,9.48780431,-0.27087096,2.42319693,0.01008118,-0.00264655,0.00615827
2.11511451,9.42191678,-0.20498343,2.42319693,0.00152907,0.00346210,0.00004962
2.12634653,9.49512515,-0.29283347,2.36463024,-0.00457958,-0.00020309,-0.00239384
2.13757855,9.56101268,-0.45389187,2.42319693,-0.00824478,0.00346210,-0.00972422
2.14881057,9.48780431,-0.78332952,2.41587610,-0.00335785,0.00224037,-0.00850249
2.15998256,9.59761686,-0.74672534,2.40123442,0.00519426,0.00468383,-0.00483730
2.17115456,9.48780431,-0.66619614,2.27678020,0.00397253,-0.00020309,0.00249308
2.18232656,9.46584180,-0.60762944,2.30606355,0.00397253,0.00468383,0.00493654
2.19349855,9.48048348,-0.24890845,2.32802606,0.00519426,0.00101864,0.00493654
2.20469403,9.50244599,-0.16837924,2.39391359,-0.00091439,-0.00631174,0.00371481
2.21588951,9.45120013,-0.09517088,2.36463024,0.00397253,-0.00386828,0.00127135
2.22708499,9.50976682,-0.38800434,2.47444279,0.00030734,-0.00264655,-0.00605903
2.23828048,9.50244599,-0.68815865,2.36463024,-0.00824478,0.00346210,-0.00972422
2.24948072,9.56833352,-0.93706709,2.27678020,-0.00213612,0.00468383,0.00004962
2.26068097,9.48048348,-0.96635044,2.26213853,0.00152907,0.00346210,-0.00361557
2.27188122,9.54637101,-0.79065036,2.30606355,0.00641599,-0.00386828,0.00127135
2.28308147,9.46584180,-0.38800434,2.30606355,0.00519426,-0.00142482,0.00738000
2.29429322,9.55369184,-0.28551263,2.31338438,0.01374637,-0.00142482,0.00127135
2.30550498,9.49512515,-0.26355012,2.36463024,0.01130291,-0.00264655,0.00493654
2.31671673,9.47316264,-0.23426677,2.37195108,0.00641599,-0.00386828,-0.00117211
2.32792848,9.53905017,-0.51977940,2.37927191,-0.00824478,0.00712729,-0.01216768
2.33912575,9.55369184,-0.72476283,2.36463024,-0.00824478,0.00101864,-0.00850249
2.35032302,9.50244599,-0.90046291,2.26945936,-0.00213612,0.00224037,-0.00117211
2.36152029,9.49512515,-0.77600869,2.28410104,-0.00335785,0.00590556,0.00127135
2.37271756,9.52440850,-0.52710024,2.23285518,0.00641599,0.00346210,0.00738000
2.38394427,9.54637101,-0.35872100,2.34266773,0.00763772,-0.00264655,0.00493654
2.39517099,9.50244599,-0.16105841,2.31338438,0.00397253,-0.00020309,0.00127135
2.40639770,9.45852097,-0.11713339,2.36463024,0.00275080,-0.00020309,0.00493654
2.41762441,9.50976682,-0.45389187,2.45980112,-0.00457958,-0.00386828,-0.00483730
2.42880040,9.47316264,-0.65155446,2.43783861,-0.00824478,0.00590556,-0.00728076
2.43997639,9.55369184,-0.79065036,2.28410104,-0.00946651,-0.00020309,-0.00239384
2.45115238,9.49512515,-0.78332952,2.29142187,-0.00091439,0.00468383,-0.00117211
2.46232837,9.50244599,-0.60030861,2.30606355,0.01008118,-0.00264655,0.00738000
2.47354841,9.50244599,-0.43192936,2.34266773,0.00763772,-0.00631174,0.00860174
2.48476845,9.41459595,-0.30015430,2.40123442,0.00641599,-0.00386828,0.00493654
2.49598849,9.48048348,-0.21962510,2.37927191,-0.00580131,-0.00020309,0.00493654
2.50720853,9.52440850,-0.40264602,2.34266773,-0.00213612,-0.00142482,-0.00850249
2.51838601,9.56101268,-0.62227112,2.38659275,-0.00824478,0.00590556,-0.00605903
2.52956349,9.45852097,-0.72476283,2.32802606,-0.00457958,0.00224037,-0.00361557
2.54074097,9.50976682,-0.82725454,2.28410104,-0.00702304,0.00224037,-0.00728076
2.55191845,9.51708766,-0.63691279,2.23285518,0.00641599,0.00224037,0.00249308
2.56314194,9.42923762,-0.56370442,2.30606355,0.01618983,0.00224037,0.01104520
2.57436544,9.56101268,-0.34407932,2.32070522,0.00885945,-0.00386828,0.00004962
2.58558893,9.48048348,-0.43925020,2.41587610,0.00519426,-0.00264655,0.00615827
2.59681243,9.48048348,-0.40264602,2.52568865,-0.00335785,-0.00020309,-0.00850249
2.60801071,9.52440850,-0.50513773,2.45980112,-0.01190997,0.00346210,-0.00361557
2.61920899,9.49512515,-0.58566693,2.22553434,-0.01068824,0.00590556,-0.00361557
2.63040727,9.50244599,-0.72476283,2.23285518,-0.00335785,0.00834902,-0.00117211
2.64160556,9.55369184,-0.73208367,2.26213853,0.00763772,0.00224037,0.00004962
2.65277576,9.51708766,-0.66619614,2.29142187,0.00641599,0.00101864,0.00004962
2.66394597,9.47316264,-0.66619614,2.41587610,0.00763772,-0.00753348,0.00493654
2.67511618,9.55369184,-0.38068351,2.39391359,0.00885945,-0.00142482,0.00127135
2.68628639,9.44387929,-0.30015430,2.42319693,0.00275080,-0.00020309,-0.00239384
2.69749367,9.53905017,-0.20498343,2.37195108,0.00275080,0.00101864,-0.00239384
2.70870095,9.55369184,-0.41728769,2.24017602,-0.00580131,0.00590556,-0.00605903
2.71990824,9.52440850,-0.64423363,2.33534689,-0.00335785,0.00346210,-0.00972422
2.73111552,9.51708766,-0.76868785,2.32802606,-0.00091439,-0.00264655,-0.00728076
2.74230802,9.57565435,-0.58566693,2.34998857,0.00275080,-0.00386828,0.00493654
2.75350052,9.49512515,-0.55638359,2.43783861,-0.00091439,0.00224037,0.00249308
2.76469302,9.48780431,-0.44657104,2.38659275,0.00885945,0.00346210,0.00371481
2.77588552,9.48048348,-0.36604183,2.35730940,0.00275080,0.00712729,-0.00239384
2.78711575,9.46584180,-0.48317522,2.30606355,-0.00091439,-0.00264655,-0.00605903
2.79834598,9.54637101,-0.54174191,2.25481769,-0.00335785,-0.00142482,-0.00483730
2.80957621,9.48780431,-0.62959195,2.22553434,-0.00580131,-0.00020309,-0.00972422
2.82080644,9.56833352,-0.65887530,2.35730940,0.00275080,-0.00264655,-0.00117211
2.83199120,9.55369184,-0.65887530,2.37195108,0.00030734,0.00101864,0.00615827
2.84317595,9.56101268,-0.51977940,2.33534689,0.00641599,-0.00509001,0.00004962
2.85436070,9.44387929,-0.38068351,2.42319693,0.00763772,0.00468383,0.00493654
2.86554545,9.44387929,-0.32211681,2.39391359,0.00397253,0.00101864,0.00249308
2.87673348,9.50244599,-0.44657104,2.37927191,0.00152907,-0.00020309,-0.00239384
2.88792151,9.50976682,-0.65155446,2.34266773,-0.00457958,-0.00020309,-0.00728076
2.89910954,9.52440850,-0.54906275,2.30606355,-0.00213612,-0.00386828,-0.00605903
2.91029757,9.42923762,-0.67351697,2.48176363,-0.00457958,-0.00142482,0.00004962
2.92152482,9.57565435,-0.63691279,2.34266773,0.00519426,0.00468383,-0.00361557
2.93275207,9.45120013,-0.57102526,2.24017602,0.00885945,0.00224037,-0.00361557
2.94397932,9.43655846,-0.40996685,2.18893016,0.00641599,0.00468383,0.00860174
2.95520657,9.47316264,-0.30747514,2.31338438,0.00275080,-0.00142482,0.00249308
2.96638554,9.49512515,-0.35872100,2.32070522,-0.00213612,-0.00631174,0.00127135
2.97756451,9.50244599,-0.39532518,2.48908446,-0.00580131,-0.00386828,0.00004962
2.98874348,9.56833352,-0.45389187,2.48176363,0.00519426,-0.00875521,-0.00239384
2.99992245,9.46584180,-0.65155446,2.36463024,0.00641599,0.00224037,0.00004962
3.01112872,9.59761686,-0.62227112,2.25481769,-0.00580131,-0.00020309,0.00004962
3.02233499,9.55369184,-0.54174191,2.30606355,-0.00702304,-0.00020309,-0.00483730
3.03354126,9.51708766,-0.38800434,2.26213853,-0.00824478,-0.00142482,0.00127135
3.04474753,9.45852097,-0.50513773,2.47444279,0.00275080,-0.00142482,0.00004962
3.05594277,9.53905017,-0.55638359,2.41587610,0.00152907,0.00224037,-0.00483730
3.06713802,9.50244599,-0.62227112,2.42319693,-0.00091439,-0.00264655,-0.00361557
3.07833326,9.45120013,-0.42460853,2.34266773,-0.00580131,0.00224037,0.00249308
3.08952850,9.46584180,-0.59298777,2.26213853,-0.00457958,0.00468383,0.00127135
3.10073900,9.50976682,-0.58566693,2.29874271,-0.00213612,-0.00020309,-0.00483730
3.11194950,9.48048348,-0.60762944,2.36463024,0.00763772,0.00468383,0.00249308
3.12316000,9.47316264,-0.59298777,2.34266773,0.00397253,0.00346210,0.00371481
3.13437051,9.48048348,-0.59298777,2.38659275,-0.00213612,-0.00142482,-0.00239384
3.14555871,9.42191678,-0.45389187,2.40123442,0.00641599,0.00101864,0.00615827
3.15674692,9.53905017,-0.36604183,2.40123442,0.00519426,-0.00020309,0.00127135
3.16793513,9.51708766,-0.47585438,2.41587610,0.00397253,0.00224037,-0.00117211
3.17912334,9.48048348,-0.65155446,2.29142187,0.00275080,-0.00142482,-0.00239384
3.19031709,9.56101268,-0.66619614,2.27678020,-0.00213612,0.00224037,-0.00117211
3.20151085,9.51708766,-0.59298777,2.26213853,0.00397253,0.00712729,-0.00850249
3.21270460,9.39995427,-0.58566693,2.27678020,0.01374637,-0.00142482,-0.00117211
3.22389835,9.49512515,-0.45389187,2.40855526,0.00030734,-0.00753348,0.00249308
3.23509711,9.44387929,-0.41728769,2.51104697,0.00519426,0.00468383,-0.00728076
3.24629587,9.56833352,-0.35140016,2.38659275,0.00152907,-0.00264655,0.00004962
3.25749463,9.57565435,-0.32943765,2.40123442,-0.00335785,0.00957075,0.00127135
3.26869339,9.52440850,-0.64423363,2.29142187,0.00275080,0.00590556,-0.00605903
3.27990389,9.48780431,-0.60030861,2.21089267,0.00397253,-0.00142482,0.00249308
3.29111439,9.51708766,-0.60030861,2.26945936,0.00152907,0.00346210,0.00493654
3.30232489,9.49512515,-0.52710024,2.37195108,0.00397253,-0.00509001,0.00493654
3.31353539,9.47316264,-0.48317522,2.49640530,0.00275080,-0.00142482,0.00615827
3.32475966,9.47316264,-0.43192936,2.44515944,0.00397253,-0.00142482,-0.00239384
3.33598393,9.48048348,-0.41728769,2.37927191,0.00641599,0.00346210,-0.00117211
3.34720820,9.50976682,-0.58566693,2.32802606,-0.00824478,0.00712729,-0.00117211
3.35843247,9.50244599,-0.54906275,2.20357183,-0.00702304,0.00224037,-0.00117211
3.36960721,9.48048348,-0.62227112,2.16696765,-0.00335785,-0.00020309,-0.00239384
3.38078195,9.48780431,-0.62227112,2.24017602,0.00397253,0.00346210,0.00127135
3.39195669,9.51708766,-0.62227112,2.46712195,0.00275080,-0.00386828,0.00004962
3.40313143,9.56833352,-0.49781689,2.47444279,0.00519426,0.00224037,0.00004962
3.41435140,9.50976682,-0.43925020,2.34998857,0.00030734,0.00590556,0.00004962
3.42557138,9.52440850,-0.41728769,2.27678020,-0.00091439,0.00346210,-0.00117211
3.43679136,9.54637101,-0.46121271,2.21821351,-0.00457958,-0.00020309,-0.00361557
3.44801134,9.43655846,-0.59298777,2.29874271,0.00152907,0.00101864,-0.00728076
3.45921659,9.60493770,-0.65887530,2.45980112,0.00030734,-0.00142482,-0.00239384
3.47042185,9.50244599,-0.62227112,2.51836781,0.00152907,-0.00631174,0.00127135
3.48162711,9.50244599,-0.55638359,2.45248028,0.00519426,-0.00142482,0.00127135
3.49283236,9.45120013,-0.38068351,2.42319693,-0.00213612,0.00346210,0.00615827
3.50400811,9.39995427,-0.38068351,2.39391359,0.00030734,0.00590556,0.00127135
3.51518387,9.47316264,-0.39532518,2.28410104,-0.00457958,0.00224037,0.00249308
3.52635962,9.50244599,-0.47585438,2.32802606,-0.00457958,0.00101864,-0.00117211
3.53753537,9.50244599,-0.51977940,2.35730940,0.00152907,0.00101864,-0.00117211
3.54875761,9.56833352,-0.62959195,2.37927191,-0.00335785,-0.00142482,-0.00117211
3.55997986,9.56833352,-0.67351697,2.36463024,0.00641599,-0.00142482,0.00493654
3.57120210,9.45852097,-0.47585438,2.41587610,-0.00091439,-0.00142482,-0.00850249
3.58242434,9.45852097,-0.37336267,2.45980112,-0.00213612,-0.00020309,0.00127135
3.59360039,9.49512515,-0.41728769,2.35730940,-0.00580131,0.00468383,0.00371481
3.60477644,9.45852097,-0.46853355,2.29874271,0.00030734,-0.00020309,-0.00972422
3.61595249,9.53905017,-0.67351697,2.26945936,-0.00091439,-0.00264655,-0.00117211
3.62712854,9.56833352,-0.72476283,2.26945936,-0.00213612,-0.00020309,0.00127135
3.63835055,9.48048348,-0.68083781,2.37195108,0.00641599,-0.00386828,-0.00117211
3.64957255,9.43655846,-0.64423363,2.38659275,0.00030734,-0.00020309,0.00127135
3.66079456,9.49512515,-0.59298777,2.37195108,0.00519426,-0.00020309,0.00004962
3.67201656,9.54637101,-0.46853355,2.29142187,-0.00335785,-0.00020309,0.00249308
3.68319428,9.51708766,-0.40996685,2.33534689,0.00275080,-0.00020309,0.00249308
3.69437200,9.49512515,-0.45389187,2.35730940,0.00152907,-0.00020309,0.00249308
3.70554972,9.48780431,-0.46853355,2.25481769,0.00030734,-0.00142482,-0.00117211
3.71672744,9.46584180,-0.60762944,2.36463024,0.00152907,-0.00020309,-0.00117211
3.72793096,9.53172933,-0.61495028,2.25481769,0.00397253,-0.00386828,0.00249308
3.73913449,9.50976682,-0.62227112,2.34266773,-0.00457958,0.00101864,0.00371481
3.75033802,9.58297519,-0.48317522,2.33534689,0.00641599,-0.00264655,0.00371481
3.76154155,9.45852097,-0.47585438,2.41587610,0.00275080,-0.00020309,0.00738000
3.77273977,9.56833352,-0.41728769,2.44515944,0.00152907,-0.00142482,0.00615827
3.78393799,9.55369184,-0.38068351,2.30606355,0.00030734,-0.00142482,0.00127135
3.79513621,9.45120013,-0.50513773,2.25481769,0.00152907,0.00590556,-0.00361557
3.80633444,9.50976682,-0.49049606,2.28410104,-0.00457958,-0.00142482,-0.00361557
3.81753671,9.46584180,-0.63691279,2.26945936,-0.00091439,0.00346210,0.00249308
3.82873899,9.49512515,-0.68083781,2.32070522,0.00397253,-0.00264655,0.00127135
3.83994126,9.47316264,-0.60030861,2.37927191,0.00030734,0.00101864,-0.00239384
3.85114354,9.47316264,-0.48317522,2.43051777,0.00641599,0.00590556,0.00127135
3.86233503,9.53905017,-0.43192936,2.33534689,-0.00213612,-0.00264655,0.00493654
3.87352651,9.47316264,-0.38800434,2.25481769,0.00397253,0.00712729,-0.00361557
3.88471800,9.56833352,-0.48317522,2.19625100,0.00152907,-0.00020309,-0.00117211
3.89590949,9.54637101,-0.54174191,2.35730940,-0.00091439,-0.00142482,0.00127135
3.90714097,9.58297519,-0.61495028,2.41587610,-0.00091439,-0.00264655,0.00127135
3.91837245,9.43655846,-0.69547948,2.38659275,0.00397253,-0.00142482,0.00127135
3.92960393,9.53905017,-0.57102526,2.35730940,-0.00580131,-0.00386828,0.00249308
3.94083542,9.50976682,-0.57102526,2.32802606,0.00152907,0.00224037,0.00493654
3.95201141,9.50976682,-0.47585438,2.30606355,0.01252464,-0.00020309,-0.00117211
3.96318740,9.56101268,-0.51977940,2.25481769,-0.00213612,0.00101864,0.00371481
3.97436339,9.53905017,-0.45389187,2.32802606,-0.00580131,-0.00264655,0.00371481
3.98553938,9.48780431,-0.52710024,2.43783861,-0.00091439,-0.00142482,0.00127135
3.99676114,9.56833352,-0.57834610,2.46712195,0.00641599,0.00224037,-0.00361557
4.00798291,9.53905017,-0.54174191,2.37195108,0.00275080,-0.00386828,0.00249308
4.01920468,9.58297519,-0.61495028,2.42319693,-0.00213612,0.00224037,0.00371481
4.03042644,9.50976682,-0.47585438,2.30606355,0.00152907,0.00224037,0.00493654
4.04160672,9.51708766,-0.43925020,2.17428849,-0.00457958,0.00468383,0.00493654
4.05278701,9.44387929,-0.38068351,2.32802606,0.00397253,-0.00264655,0.00615827
4.06396729,9.45852097,-0.47585438,2.29874271,0.00030734,-0.00386828,-0.00605903
4.07514757,9.56833352,-0.59298777,2.46712195,-0.00091439,0.00101864,-0.00728076
4.08637053,9.54637101,-0.58566693,2.38659275,-0.00580131,-0.00142482,0.00249308
4.09759349,9.54637101,-0.61495028,2.33534689,-0.00213612,0.00101864,-0.00117211
4.10881644,9.55369184,-0.55638359,2.30606355,-0.00946651,0.00224037,0.00493654
4.12003940,9.53172933,-0.50513773,2.25481769,0.00275080,-0.00386828,0.00493654
4.13120693,9.45852097,-0.48317522,2.29874271,0.00641599,-0.00509001,-0.00117211
4.14237446,9.45120013,-0.49781689,2.32802606,0.00275080,-0.00142482,-0.00117211
4.15354198,9.48048348,-0.54174191,2.37195108,0.00030734,-0.00142482,0.01104520
4.16470951,9.42923762,-0.53442108,2.48908446,-0.00213612,-0.00142482,-0.00361557
4.17594349,9.50976682,-0.62227112,2.51104697,-0.00580131,0.00224037,-0.00117211
4.18717748,9.50976682,-0.52710024,2.38659275,0.00397253,0.00224037,0.00127135
4.19841146,9.59761686,-0.52710024,2.29142187,-0.00580131,0.00224037,-0.00483730
4.20964545,9.48048348,-0.56370442,2.22553434,0.00152907,-0.00509001,-0.00117211
4.22081947,9.56101268,-0.54174191,2.28410104,0.00275080,-0.00509001,-0.00117211
4.23199350,9.52440850,-0.49781689,2.42319693,0.00397253,-0.00386828,0.00493654
4.24316752,9.45852097,-0.49049606,2.47444279,0.00763772,-0.00631174,0.00615827
4.25434154,9.47316264,-0.51977940,2.45248028,-0.00335785,0.00346210,0.00371481
4.26554275,9.53172933,-0.51245857,2.35730940,-0.00457958,0.00468383,-0.00117211
4.27674395,9.43655846,-0.57102526,2.31338438,0.00519426,0.00346210,-0.00361557
4.28794515,9.47316264,-0.54174191,2.24749685,0.00519426,-0.00020309,0.00127135
4.29914635,9.50976682,-0.56370442,2.31338438,-0.00213612,0.00101864,0.00249308
4.31036812,9.43655846,-0.46853355,2.29142187,-0.01190997,-0.00142482,0.00127135
4.32158989,9.44387929,-0.53442108,2.42319693,0.00641599,-0.00509001,0.00371481
4.33281165,9.46584180,-0.49049606,2.41587610,-0.00091439,-0.00264655,-0.00239384
4.34403342,9.46584180,-0.48317522,2.34998857,0.00397253,0.00712729,0.00371481
4.35520995,9.45120013,-0.45389187,2.34266773,-0.00335785,0.00101864,0.00493654
4.36638647,9.48780431,-0.56370442,2.21089267,0.00030734,0.00101864,0.00127135
4.37756300,9.48780431,-0.48317522,2.18160932,0.00030734,-0.00386828,0.00249308
4.38873953,9.48048348,-0.60762944,2.34266773,-0.00824478,-0.00020309,-0.00361557
4.39994299,9.48780431,-0.62227112,2.45248028,-0.00457958,-0.00264655,0.00493654
4.41114646,9.53172933,-0.59298777,2.42319693,0.00763772,-0.00386828,-0.00117211
4.42234993,9.43655846,-0.59298777,2.48176363,0.00763772,-0.00020309,0.00004962
4.43355340,9.53172933,-0.48317522,2.37195108,0.00030734,0.00224037,0.00615827
4.44475240,9.53172933,-0.46853355,2.27678020,0.00030734,0.00346210,-0.00117211
4.45595139,9.49512515,-0.43192936,2.32070522,0.00152907,0.00590556,0.00004962
4.46715039,9.54637101,-0.47585438,2.26945936,-0.00091439,-0.00386828,-0.00361557
4.47834939,9.52440850,-0.65887530,2.32070522,-0.00091439,-0.00142482,-0.00117211
4.48956966,9.48048348,-0.60762944,2.42319693,-0.00335785,-0.00631174,0.00004962
4.50078994,9.53172933,-0.58566693,2.38659275,-0.00091439,-0.00020309,-0.00117211
4.51201022,9.45852097,-0.51977940,2.32070522,-0.00335785,0.00224037,-0.00117211
4.52323049,9.58297519,-0.47585438,2.24749685,-0.00091439,-0.00142482,0.00127135
4.53442574,9.56833352,-0.43925020,2.30606355,-0.00335785,-0.00142482,0.00493654
4.54562098,9.52440850,-0.43192936,2.26213853,0.00030734,-0.00264655,0.00127135
4.55681622,9.59029603,-0.45389187,2.24749685,-0.00213612,-0.00264655,-0.00117211
4.56801146,9.53172933,-0.46853355,2.45980112,0.00275080,-0.00142482,0.00371481
4.57921946,9.44387929,-0.59298777,2.48176363,-0.00457958,-0.00142482,-0.00239384
4.59042746,9.54637101,-0.54906275,2.43783861,0.00275080,0.00224037,-0.00117211
4.60163546,9.59761686,-0.49049606,2.26945936,-0.00457958,0.00224037,0.00493654
4.61284345,9.48780431,-0.54174191,2.37927191,-0.00091439,-0.00264655,0.00127135
4.62401247,9.57565435,-0.51977940,2.34266773,0.00030734,-0.00142482,-0.00117211
4.63518149,9.51708766,-0.35872100,2.35730940,-0.00091439,-0.00264655,-0.00117211
4.64635050,9.52440850,-0.43192936,2.37195108,-0.00457958,0.00101864,-0.00605903
4.65751952,9.50976682,-0.53442108,2.41587610,0.00397253,-0.00142482,0.00004962
4.66872400,9.56833352,-0.40264602,2.37195108,0.00030734,0.00346210,0.00249308
4.67992848,9.47316264,-0.55638359,2.31338438,-0.00091439,0.00224037,0.00127135
4.69113296,9.43655846,-0.51977940,2.35730940,0.00275080,0.00224037,0.00127135
4.70233744,9.53905017,-0.55638359,2.34266773,0.00519426,-0.00142482,0.00493654
4.71353221,9.52440850,-0.54906275,2.30606355,0.00275080,0.00346210,0.00004962
4.72472697,9.44387929,-0.50513773,2.29874271,-0.00213612,-0.00264655,0.00371481
4.73592174,9.50244599,-0.62959195,2.47444279,-0.00580131,-0.00020309,-0.00117211
4.74711651,9.46584180,-0.59298777,2.45980112,0.00519426,-0.00509001,0.00004962
4.75833499,9.47316264,-0.48317522,2.25481769,0.00030734,0.00468383,-0.00239384
4.76955348,9.55369184,-0.48317522,2.23285518,0.00275080,0.00590556,-0.00117211
4.78077197,9.53172933,-0.63691279,2.26945936,-0.00213612,0.00346210,-0.00605903
4.79199046,9.42191678,-0.50513773,2.37195108,-0.00091439,0.00346210,0.00004962
4.80320573,9.56101268,-0.53442108,2.40123442,-0.00457958,-0.00386828,0.00004962
4.81442100,9.42191678,-0.44657104,2.44515944,-0.00580131,-0.00020309,0.00615827
4.82563627,9.50976682,-0.63691279,2.43051777,0.00519426,0.00468383,0.00004962
4.83685154,9.54637101,-0.48317522,2.32070522,-0.00213612,-0.00020309,0.00127135
4.84802800,9.51708766,-0.50513773,2.34998857,-0.00335785,-0.00142482,0.00127135
4.85920447,9.51708766,-0.53442108,2.26945936,0.00275080,0.00834902,-0.00728076
4.87038094,9.45852097,-0.51977940,2.34266773,0.00152907,-0.00264655,0.00371481
4.88155740,9.48048348,-0.47585438,2.39391359,0.00275080,-0.00264655,0.00004962
4.89277792,9.45852097,-0.47585438,2.43783861,0.00519426,0.00224037,0.00004962
4.90399843,9.45852097,-0.41728769,2.44515944,-0.00335785,-0.00509001,0.00615827
4.91521895,9.48048348,-0.61495028,2.45248028,-0.00580131,-0.00142482,0.00004962
4.92643946,9.59029603,-0.60030861,2.41587610,0.00397253,-0.00020309,-0.00483730
4.93761796,9.48780431,-0.63691279,2.29142187,0.00152907,0.00346210,0.00371481
4.94879645,9.50244599,-0.53442108,2.32802606,-0.00335785,-0.00509001,0.00371481
4.95997494,9.50976682,-0.55638359,2.28410104,0.00519426,0.00101864,0.00371481
4.97115344,9.50244599,-0.39532518,2.34266773,0.00885945,0.00712729,-0.00239384
4.98235619,9.50976682,-0.47585438,2.37927191,0.00397253,0.00468383,0.00371481
4.99355894,9.52440850,-0.49049606,2.45980112,0.00763772,0.00346210,0.00127135
5.00476170,9.50976682,-0.52710024,2.29874271,0.00397253,0.00346210,-0.00117211
5.01596445,9.52440850,-0.57834610,2.21821351,0.00152907,0.00101864,0.00371481
5.02716571,9.53172933,-0.58566693,2.20357183,-0.00091439,0.00346210,0.00493654
5.03836697,9.48048348,-0.62959195,2.36463024,0.00152907,-0.00142482,0.00127135
5.04956824,9.48780431,-0.58566693,2.45248028,0.00763772,-0.00020309,-0.00483730
5.06076950,9.44387929,-0.57834610,2.39391359,-0.00457958,0.00101864,0.00249308
5.07196248,9.45852097,-0.53442108,2.45248028,-0.00213612,0.00468383,0.00493654
5.08315545,9.48048348,-0.56370442,2.29142187,0.00275080,0.00224037,0.00249308
5.09434843,9.51708766,-0.49781689,2.29142187,0.00030734,-0.00020309,0.00371481
5.10554141,9.52440850,-0.46853355,2.29142187,0.00397253,-0.00020309,0.00249308
5.11676544,9.53172933,-0.39532518,2.39391359,0.00275080,0.00224037,-0.00117211
5.12798947,9.48048348,-0.42460853,2.38659275,0.00397253,-0.00020309,-0.00239384
5.13921350,9.50976682,-0.54174191,2.45248028,0.00152907,-0.00264655,0.00371481
5.15043753,9.50244599,-0.43192936,2.43051777,0.00519426,0.00224037,-0.00728076
5.16160828,9.46584180,-0.48317522,2.34998857,-0.00091439,0.01079248,-0.00361557
5.17277902,9.54637101,-0.52710024,2.26213853,-0.00335785,0.00468383,0.00004962
5.18394977,9.51708766,-0.47585438,2.28410104,0.00030734,0.00590556,0.00004962
5.19512051,9.47316264,-0.47585438,2.29142187,0.00397253,-0.00264655,0.00371481
5.20632273,9.48780431,-0.46853355,2.29874271,-0.00091439,-0.00142482,0.00004962
5.21752495,9.52440850,-0.53442108,2.43783861,0.00519426,-0.00142482,-0.00239384
5.22872716,9.46584180,-0.63691279,2.40855526,0.00152907,-0.00264655,-0.00117211
5.23992938,9.51708766,-0.54906275,2.34266773,0.00152907,0.00468383,-0.00117211
5.25115716,9.50244599,-0.60762944,2.36463024,-0.00580131,0.00101864,-0.00117211
5.26238495,9.55369184,-0.57102526,2.26213853,0.00030734,-0.00264655,0.00249308
5.27361274,9.56101268,-0.50513773,2.32802606,0.00275080,-0.00509001,-0.00483730
5.28484052,9.48048348,-0.56370442,2.32802606,-0.00091439,-0.00386828,-0.00239384
5.29601479,9.57565435,-0.57102526,2.43051777,0.00397253,0.00224037,-0.00239384
5.30718905,9.48780431,-0.59298777,2.34266773,0.00152907,-0.00142482,-0.00361557
5.31836331,9.57565435,-0.58566693,2.32070522,0.00397253,0.00224037,0.00615827
5.32953757,9.59029603,-0.46121271,2.33534689,0.00152907,-0.00020309,-0.00483730
5.34076178,9.51708766,-0.46853355,2.33534689,0.00152907,0.00346210,0.00004962
5.35198599,9.52440850,-0.45389187,2.34266773,0.00030734,0.00101864,0.00371481
5.36321020,9.42923762,-0.45389187,2.39391359,-0.00335785,-0.00142482,0.00493654
5.37443441,9.53172933,-0.61495028,2.40855526,0.00030734,-0.00142482,-0.00117211
5.38561565,9.53905017,-0.62959195,2.40855526,0.00152907,-0.00142482,-0.00483730
5.39679688,9.61225854,-0.51245857,2.37195108,0.00152907,-0.00264655,0.00004962
5.40797812,9.54637101,-0.48317522,2.39391359,-0.00091439,0.00224037,-0.00483730
5.41915935,9.51708766,-0.46853355,2.33534689,-0.00213612,0.00346210,0.00004962
5.43035364,9.58297519,-0.51245857,2.33534689,-0.00580131,0.00224037,0.00127135
5.44154793,9.48780431,-0.49049606,2.33534689,0.00275080,0.00101864,-0.00239384
5.45274222,9.45852097,-0.49781689,2.34266773,0.00397253,-0.00264655,-0.00361557
5.46393651,9.50976682,-0.50513773,2.29874271,-0.00580131,-0.00264655,-0.00483730
5.47513926,9.60493770,-0.60762944,2.40855526,0.00152907,-0.00020309,0.00004962
5.48634201,9.54637101,-0.49049606,2.37927191,0.00275080,-0.00020309,0.00249308
5.49754477,9.51708766,-0.49049606,2.34998857,0.00519426,0.00224037,-0.00117211
5.50874752,9.47316264,-0.51977940,2.29874271,-0.00457958,-0.00020309,0.00127135
5.51995224,9.46584180,-0.48317522,2.24749685,-0.00213612,0.00712729,-0.00361557
5.53115696,9.54637101,-0.49781689,2.29874271,-0.00457958,-0.00142482,-0.00361557
5.54236168,9.54637101,-0.54174191,2.35730940,0.00275080,-0.00386828,0.00615827
5.55356640,9.52440850,-0.53442108,2.38659275,-0.00457958,-0.00264655,-0.00361557
5.56476539,9.46584180,-0.55638359,2.48176363,0.00397253,-0.00020309,0.00004962
5.57596439,9.53905017,-0.54906275,2.40855526,-0.00213612,-0.00631174,-0.00117211
5.58716339,9.49512515,-0.57834610,2.36463024,0.00152907,-0.00020309,0.00004962
5.59836239,9.45852097,-0.57834610,2.24017602,-0.00213612,-0.00142482,0.00127135
5.60956413,9.50244599,-0.54174191,2.23285518,0.01130291,0.00468383,0.00004962
5.62076586,9.45120013,-0.49781689,2.34998857,0.00397253,-0.00264655,-0.00239384
5.63196760,9.54637101,-0.47585438,2.40123442,-0.00213612,-0.00142482,0.00493654
5.64316934,9.46584180,-0.30015430,2.37195108,-0.00213612,-0.00020309,-0.00728076
5.65436411,9.49512515,-0.53442108,2.43051777,-0.00580131,0.00101864,-0.00605903
5.66555887,9.50244599,-0.61495028,2.35730940,-0.00335785,0.00224037,-0.00239384
5.67675364,9.46584180,-0.53442108,2.35730940,-0.00335785,0.00101864,0.00249308
5.68794841,9.48780431,-0.54906275,2.33534689,-0.00091439,-0.00020309,0.00493654
5.69914520,9.50244599,-0.52710024,2.30606355,0.00030734,0.00101864,0.00127135
5.71034199,9.48780431,-0.53442108,2.37927191,-0.00457958,0.00224037,-0.00361557
5.72153878,9.52440850,-0.48317522,2.39391359,0.00152907,-0.00264655,-0.00117211
5.73273557,9.48780431,-0.45389187,2.43051777,0.00397253,0.00101864,-0.00605903
5.74396604,9.53905017,-0.48317522,2.42319693,0.00030734,0.00346210,0.00004962
5.75519651,9.50976682,-0.62959195,2.37195108,0.00275080,0.00590556,0.00127135
5.76642698,9.47316264,-0.58566693,2.37195108,-0.00335785,0.00834902,-0.00117211
5.77765745,9.55369184,-0.60030861,2.28410104,0.00152907,0.00468383,-0.00483730
5.78883219,9.50244599,-0.46853355,2.33534689,0.00030734,0.00224037,0.00127135
5.80000693,9.49512515,-0.46853355,2.32070522,0.00397253,0.00346210,-0.00361557
5.81118166,9.53172933,-0.46853355,2.47444279,0.00397253,-0.00264655,-0.00239384
5.82235640,9.48780431,-0.48317522,2.45980112,0.00275080,-0.00142482,-0.00361557
5.83356941,9.54637101,-0.38800434,2.48176363,-0.00091439,0.00224037,-0.00361557
5.84478241,9.58297519,-0.49781689,2.42319693,0.00030734,0.00346210,-0.00361557
5.85599542,9.49512515,-0.57834610,2.41587610,-0.00702304,0.00224037,0.00371481
5.86720842,9.45852097,-0.54906275,2.17428849,0.01008118,0.00101864,0.00004962
5.87841767,9.49512515,-0.55638359,2.29874271,0.00152907,-0.00264655,0.00004962
5.88962692,9.45120013,-0.62959195,2.25481769,0.00519426,-0.00509001,0.00127135
5.90083617,9.51708766,-0.53442108,2.35730940,0.00397253,-0.00509001,-0.00117211
5.91204542,9.51708766,-0.43925020,2.55497199,-0.00457958,-0.00020309,-0.00117211
5.92321867,9.45120013,-0.35140016,2.47444279,-0.00091439,0.00224037,-0.00850249
5.93439192,9.53905017,-0.46121271,2.35730940,0.00275080,0.00101864,-0.00361557
5.94556516,9.53172933,-0.54174191,2.33534689,-0.00213612,0.00590556,-0.00850249
5.95673841,9.54637101,-0.63691279,2.19625100,0.00030734,0.00101864,-0.00239384
5.96794742,9.60493770,-0.54906275,2.21089267,0.00763772,0.00101864,0.00493654
5.97915643,9.56833352,-0.61495028,2.34998857,0.00519426,-0.00142482,-0.00117211
5.99036545,9.50244599,-0.51977940,2.47444279,0.00275080,-0.00386828,-0.00117211
6.00157446,9.61225854,-0.42460853,2.54033032,0.00152907,-0.00020309,0.00004962
6.01306546,9.49512515,-0.44657104,2.50372614,-0.00213612,0.00346210,-0.00239384
6.02455646,9.45852097,-0.46121271,2.34266773,-0.00091439,0.00346210,-0.00361557
6.03604746,9.45852097,-0.48317522,2.21821351,-0.00213612,0.00346210,-0.00483730
6.04753846,9.68546690,-0.68815865,2.20357183,-0.00702304,-0.00020309,-0.00483730
6.05846518,9.48780431,-0.54906275,2.28410104,-0.00091439,-0.00142482,-0.01094595
6.06939191,9.54637101,-0.64423363,2.42319693,0.00275080,-0.00264655,-0.00117211
6.08031863,9.50244599,-0.52710024,2.53300948,-0.00335785,-0.00386828,0.00371481
6.09124535,9.49512515,-0.47585438,2.45980112,0.00397253,0.00468383,0.00127135
6.10241789,9.46584180,-0.46121271,2.37195108,0.00397253,0.00224037,0.00615827
6.11359042,9.46584180,-0.42460853,2.27678020,-0.00580131,0.00468383,-0.00483730
6.12476295,9.53172933,-0.53442108,2.15964681,0.00519426,0.00590556,-0.00239384
6.13593549,9.52440850,-0.65887530,2.27678020,-0.00335785,-0.00509001,-0.00728076
6.14714921,9.50976682,-0.61495028,2.33534689,0.00275080,-0.00020309,0.00127135
6.15836293,9.51708766,-0.60030861,2.41587610,0.00641599,0.00346210,-0.00361557
6.16957664,9.48048348,-0.57102526,2.39391359,-0.00091439,-0.00264655,0.00004962
6.18079036,9.50244599,-0.41728769,2.35730940,0.00519426,0.00101864,0.00249308
6.19198990,9.48780431,-0.35872100,2.35730940,0.00152907,0.00346210,0.00004962
6.20318943,9.44387929,-0.46121271,2.27678020,-0.00335785,0.00224037,0.00004962
6.21438897,9.48780431,-0.48317522,2.26945936,0.00030734,-0.00142482,0.00127135
6.22558850,9.56833352,-0.66619614,2.37195108,0.00397253,-0.00142482,0.00249308
6.23680598,9.51708766,-0.56370442,2.43783861,0.00397253,-0.00020309,-0.00483730
6.24802345,9.50976682,-0.56370442,2.48176363,0.00030734,-0.00386828,-0.00239384
6.25924093,9.58297519,-0.45389187,2.45248028,0.00275080,0.00101864,0.00127135
6.27045840,9.57565435,-0.48317522,2.37927191,0.00275080,0.00346210,0.00493654
6.28163391,9.42191678,-0.31479598,2.24017602,0.00152907,0.00101864,-0.00117211
6.29280943,9.45120013,-0.47585438,2.21821351,-0.00824478,-0.00020309,0.00004962
6.30398494,9.57565435,-0.54174191,2.31338438,-0.00335785,-0.00142482,-0.00239384
6.31516045,9.49512515,-0.61495028,2.40855526,0.00030734,-0.00142482,-0.00483730
6.32637972,9.61957937,-0.80529203,2.48908446,0.00030734,0.00224037,-0.00239384
6.33759898,9.10712081,-1.39827980,3.58720996,-0.00457958,-0.00020309,0.00371481
6.34881824,5.08066064,-4.34125614,-0.33675849,-0.00213612,0.00712729,-0.00972422
6.36003751,12.33560977,0.65887530,1.40560064,0.00885945,0.00346210,0.00738000
6.37122375,11.55960109,-1.66915076,-2.51836781,0.01130291,-0.00386828,-0.00728076
6.38240999,10.54200479,-0.48317522,-0.29283347,0.01741156,-0.00509001,-0.00972422
6.39359623,10.52736312,-1.32507144,3.45543490,0.00763772,-0.00142482,0.00371481
6.40478247,7.90650359,0.62959195,2.44515944,-0.01313170,-0.00509001,0.00127135
6.41600448,9.91973367,-2.45980112,3.11867642,0.00030734,0.00468383,-0.00239384
6.42722648,9.47316264,-0.77600869,3.45543490,-0.00213612,0.00590556,0.00615827
6.43844849,9.59761686,-0.63691279,2.57693450,0.01374637,0.00224037,-0.00850249
6.44967049,10.24185049,-0.03660418,1.88145502,0.01008118,0.00834902,-0.00605903
6.46083796,9.86116698,-0.30747514,2.51836781,0.00763772,0.00468383,0.00371481
6.47200543,10.30041718,-1.08348383,2.07179677,0.00275080,-0.00020309,-0.00361557
6.48317289,9.67814607,-1.58130072,1.97662590,-0.00335785,-0.00386828,0.00371481
6.49434036,10.08079208,-2.23285518,2.40123442,0.00030734,-0.00020309,0.00249308
6.50554913,9.34870842,-1.57397988,2.37195108,0.00152907,0.00346210,0.00004962
6.51675791,9.56101268,-0.60030861,2.51836781,-0.00702304,0.00834902,0.00249308
6.52796668,9.37799176,-0.27087096,2.59889701,0.00397253,0.00834902,0.00249308
6.53917545,9.19497085,0.07320837,2.16696765,0.00397253,0.00712729,-0.00361557
6.55037320,9.74403360,-1.55201737,2.15232598,0.00641599,-0.00020309,-0.00117211
6.56157094,9.30478340,-1.66182992,2.51104697,-0.00091439,0.00590556,-0.00117211
6.57276869,9.52440850,-0.45389187,2.22553434,0.00641599,-0.00509001,-0.00728076
6.58396643,9.44387929,-0.84189622,2.34998857,-0.00335785,-0.00386828,0.00004962
6.59517044,9.57565435,-0.79065036,2.37927191,-0.00335785,0.00590556,0.00004962
6.60637444,9.59761686,-0.93706709,2.30606355,0.00763772,0.00834902,0.00004962
6.61757845,9.24621670,-1.82288833,2.09375928,0.00763772,-0.00020309,0.00004962
6.62878245,9.37067093,-0.46853355,2.21821351,0.00152907,0.00101864,0.00860174
6.63998371,9.47316264,-0.51245857,2.23285518,0.00275080,0.00101864,0.00371481
6.65118498,9.73671276,-0.68815865,2.22553434,0.00152907,-0.00264655,-0.00239384
6.66238624,9.42191678,-0.48317522,2.55497199,0.00397253,0.00224037,-0.00850249
6.67358750,9.69278774,-0.77600869,2.42319693,0.00397253,0.00590556,0.00004962
6.68480498,9.48780431,-0.57834610,2.29874271,0.00641599,0.00346210,0.00004962
6.69602245,9.58297519,-0.46853355,2.38659275,-0.00091439,0.00468383,-0.00483730
6.70723993,9.64154188,-0.78332952,2.32802606,0.00152907,0.00590556,0.00738000
6.71845740,9.50244599,-0.53442108,2.30606355,0.01252464,0.00712729,0.00127135
6.72965819,9.42191678,-0.45389187,2.38659275,0.00641599,0.00101864,0.00615827
6.74085897,9.48048348,-0.49049606,2.54033032,0.01252464,-0.00386828,0.00127135
6.75205976,9.39263344,-0.52710024,2.41587610,0.00275080,-0.00020309,-0.00239384
6.76326054,9.45852097,-0.28551263,2.55497199,-0.00457958,0.00224037,0.00004962
6.77445555,9.48048348,-0.54906275,2.29874271,0.00641599,0.00224037,0.00249308
6.78565055,9.50244599,-0.59298777,2.21821351,0.00763772,0.00346210,-0.00239384
6.79684556,9.50976682,-0.51245857,2.15964681,0.00397253,0.00712729,-0.00117211
6.80804056,9.50976682,-0.46853355,2.32070522,-0.00091439,-0.00264655,0.00249308
6.81921428,9.49512515,-0.42460853,2.47444279,-0.00091439,-0.00142482,0.00004962
6.83038801,9.45852097,-0.51977940,2.49640530,0.00519426,-0.00509001,0.00127135
6.84156173,9.53905017,-0.50513773,2.56961367,0.00885945,0.00468383,-0.00239384
6.85273546,9.50976682,-0.54906275,2.39391359,-0.00213612,0.00957075,-0.00483730
6.86398572,9.58297519,-0.56370442,2.27678020,0.00519426,0.00468383,0.00371481
6.87523597,9.52440850,-0.54906275,2.15232598,-0.00335785,-0.00020309,0.00371481
6.88648623,9.50244599,-0.60762944,2.29874271,0.00152907,0.00468383,0.00004962
6.89773649,9.50976682,-0.47585438,2.41587610,-0.00091439,-0.00142482,-0.00117211
6.90892100,9.48048348,-0.51245857,2.36463024,0.00763772,0.00346210,-0.00117211
6.92010552,9.42923762,-0.41728769,2.33534689,-0.00091439,-0.00142482,-0.00117211
6.93129003,9.48780431,-0.62227112,2.40123442,-0.00091439,0.00468383,0.00371481
6.94247454,9.44387929,-0.49781689,2.28410104,-0.00091439,0.00224037,-0.00117211
6.95364976,9.47316264,-0.57834610,2.32070522,0.00397253,-0.00020309,0.00004962
6.96482497,9.44387929,-0.54174191,2.24017602,-0.00091439,-0.00386828,-0.00483730
6.97600019,9.52440850,-0.49781689,2.23285518,0.00152907,0.00101864,-0.00239384
6.98717541,9.55369184,-0.60762944,2.40123442,0.00152907,-0.00142482,-0.00605903
6.99837518,9.53905017,-0.56370442,2.49640530,0.00641599,0.00224037,0.00249308
7.00957495,9.61225854,-0.59298777,2.46712195,0.00763772,-0.00264655,-0.00117211
7.02077472,9.49512515,-0.42460853,2.38659275,0.00519426,0.00224037,-0.00117211
7.03197449,9.52440850,-0.43192936,2.20357183,0.00030734,0.00957075,0.00249308
7.04317647,9.55369184,-0.47585438,2.31338438,0.01008118,0.00468383,-0.00483730
7.05437845,9.44387929,-0.48317522,2.34998857,0.00641599,0.00346210,-0.00117211
7.06558043,9.49512515,-0.65887530,2.52568865,0.00519426,0.00346210,-0.00117211
7.07678241,9.49512515,-0.67351697,2.35730940,0.00152907,0.00346210,0.00493654
7.08800715,9.40727511,-0.56370442,2.32070522,-0.00335785,-0.00142482,-0.00483730
7.09923190,9.52440850,-0.57102526,2.30606355,0.00275080,0.00468383,0.00249308
7.11045665,9.47316264,-0.44657104,2.29874271,0.00275080,-0.00264655,0.00249308
7.12168139,9.45120013,-0.49781689,2.27678020,0.00885945,0.00101864,-0.00117211
7.13285643,9.49512515,-0.59298777,2.37195108,0.00030734,0.00346210,0.00127135
7.14403147,9.48780431,-0.56370442,2.38659275,-0.00457958,-0.00020309,0.00493654
7.15520650,9.48048348,-0.52710024,2.39391359,0.00030734,-0.00020309,0.00249308
7.16638154,9.48048348,-0.60030861,2.42319693,-0.00091439,0.00468383,0.00004962
7.17758429,9.45120013,-0.57834610,2.37195108,-0.00213612,0.00101864,-0.00117211
7.18878704,9.53905017,-0.54906275,2.33534689,-0.00091439,0.00101864,0.00738000
7.19998980,9.53172933,-0.52710024,2.32802606,-0.00091439,0.00101864,0.00004962
7.21119255,9.42923762,-0.51245857,2.33534689,-0.00335785,0.00224037,-0.00239384
7.22238851,9.48780431,-0.54174191,2.36463024,0.00763772,0.00712729,-0.00239384
7.23358446,9.59761686,-0.54906275,2.40855526,-0.00335785,-0.00142482,0.00371481
7.24478042,9.47316264,-0.55638359,2.34266773,-0.00091439,-0.00142482,0.00249308
7.25597638,9.56101268,-0.59298777,2.18160932,0.00030734,0.00590556,0.00004962
7.26717913,9.50244599,-0.58566693,2.26945936,0.00275080,0.00101864,0.00249308
7.27838188,9.39263344,-0.57102526,2.31338438,0.00275080,-0.00264655,0.00371481
7.28958464,9.45852097,-0.56370442,2.30606355,0.00641599,0.00468383,0.00127135
7.30078739,9.38531260,-0.45389187,2.46712195,0.00152907,-0.00386828,0.00249308
7.31200743,9.50976682,-0.38068351,2.47444279,0.00275080,0.00101864,-0.00728076
7.32322747,9.50244599,-0.53442108,2.40855526,0.00397253,-0.00020309,-0.00361557
7.33444750,9.50976682,-0.57102526,2.32070522,-0.00213612,-0.00020309,-0.00605903
7.34566754,9.48048348,-0.50513773,2.15232598,0.00152907,0.00224037,0.00004962
7.35684627,9.56101268,-0.57834610,2.26213853,0.00030734,-0.00142482,0.00127135
7.36802500,9.45852097,-0.57102526,2.29874271,-0.00091439,-0.00386828,0.00127135
7.37920374,9.46584180,-0.49049606,2.38659275,0.00641599,-0.00142482,-0.00361557
7.39038247,9.41459595,-0.35872100,2.40855526,-0.00091439,-0.00020309,0.00127135
7.40160322,9.53172933,-0.33675849,2.37927191,0.00397253,0.00346210,0.00004962
7.41282398,9.59761686,-0.38800434,2.45980112,0.00030734,0.00224037,-0.00605903
7.42404473,9.47316264,-0.54906275,2.27678020,0.00030734,0.00224037,-0.00728076
7.43526548,9.48780431,-0.56370442,2.32070522,-0.00335785,-0.00142482,-0.00361557
7.44645548,9.47316264,-0.68815865,2.30606355,-0.00213612,-0.00386828,0.00127135
7.45764548,9.46584180,-0.66619614,2.26945936,0.00152907,0.00101864,0.00004962
7.46883547,9.53172933,-0.62959195,2.43051777,0.00030734,-0.00020309,0.00127135
7.48002547,9.49512515,-0.43925020,2.34266773,0.00030734,0.00468383,0.00004962
7.49121875,9.48780431,-0.51245857,2.40123442,-0.00213612,-0.00020309,0.00127135
7.50241202,9.40727511,-0.54906275,2.30606355,0.00030734,0.00101864,-0.00239384
7.51360530,9.50244599,-0.52710024,2.29142187,0.00397253,-0.00020309,-0.00483730
7.52479857,9.54637101,-0.62227112,2.43783861,0.00152907,0.00101864,0.00127135
7.53601629,9.49512515,-0.65887530,2.37195108,0.00152907,-0.00142482,0.00860174
7.54723400,9.48780431,-0.59298777,2.32802606,0.00275080,-0.00386828,0.00004962
7.55845171,9.54637101,-0.55638359,2.35730940,0.00885945,-0.00264655,0.00004962
7.56966943,9.50976682,-0.36604183,2.36463024,0.00397253,0.00101864,0.00249308
7.58087170,9.48048348,-0.38800434,2.50372614,0.00152907,-0.00142482,0.00249308
7.59207398,9.35602925,-0.47585438,2.47444279,0.00397253,0.00224037,0.00004962
7.60327625,9.49512515,-0.56370442,2.37927191,0.00030734,0.00224037,-0.00605903
7.61447853,9.57565435,-0.62959195,2.30606355,0.00030734,-0.00386828,0.00127135
7.62567627,9.52440850,-0.65155446,2.21821351,-0.00457958,0.00346210,0.00249308
7.63687402,9.52440850,-0.68083781,2.32802606,-0.00213612,-0.00386828,-0.00117211
7.64807177,9.49512515,-0.57102526,2.34998857,0.00519426,-0.00020309,-0.00117211
7.65926951,9.45120013,-0.46853355,2.36463024,0.00275080,-0.00264655,0.00127135
7.67047000,9.48048348,-0.46121271,2.42319693,0.00641599,0.00101864,0.00127135
7.68167049,9.53905017,-0.51977940,2.40123442,0.00397253,0.00468383,0.00127135
7.69287097,9.51708766,-0.35140016,2.34266773,-0.00580131,0.00346210,0.00371481
7.70407146,9.46584180,-0.58566693,2.29142187,-0.00824478,0.00224037,-0.00239384
7.71524948,9.48048348,-0.71012116,2.30606355,-0.00457958,0.00590556,-0.00361557
7.72642750,9.49512515,-0.65887530,2.23285518,0.00519426,-0.00142482,-0.00728076
7.73760551,9.50244599,-0.65887530,2.31338438,0.00030734,-0.00386828,0.00493654
7.74878353,9.50244599,-0.46853355,2.42319693,0.01008118,0.00590556,0.00127135
7.75998598,9.41459595,-0.48317522,2.44515944,-0.00091439,0.00101864,0.00493654
7.77118844,9.47316264,-0.37336267,2.38659275,-0.00213612,-0.00020309,0.00127135
7.78239089,9.50976682,-0.42460853,2.32070522,-0.00702304,0.00712729,0.00004962
7.79359335,9.50976682,-0.52710024,2.30606355,0.00275080,-0.00142482,0.00127135
7.80481339,9.48048348,-0.62227112,2.36463024,-0.00091439,-0.00020309,-0.00483730
7.81603342,9.61957937,-0.71012116,2.29874271,-0.00091439,0.00101864,-0.00728076
7.82725346,9.48780431,-0.76136701,2.40123442,0.00152907,-0.00386828,0.00127135
7.83847350,9.52440850,-0.54174191,2.37927191,0.00152907,0.00101864,0.00615827
7.84967297,9.45120013,-0.40996685,2.24749685,0.00152907,-0.00142482,0.00860174
7.86087245,9.47316264,-0.27819179,2.26945936,0.00397253,-0.00264655,0.00493654
7.87207192,9.49512515,-0.30747514,2.30606355,-0.00702304,0.00346210,0.00371481
7.88327140,9.48048348,-0.43192936,2.31338438,-0.00824478,-0.00020309,-0.00483730
7.89444268,9.58297519,-0.55638359,2.29874271,-0.00213612,-0.00020309,-0.00483730
7.90561396,9.51708766,-0.71744199,2.45980112,0.00152907,-0.00386828,0.00249308
7.91678524,9.45120013,-0.68815865,2.41587610,-0.00091439,-0.00142482,0.00249308
7.92795652,9.53905017,-0.50513773,2.41587610,0.00275080,-0.00020309,0.00249308
7.93916053,9.53905017,-0.43192936,2.34266773,-0.00335785,-0.00020309,0.00738000
7.95036453,9.47316264,-0.25622928,2.29142187,0.00763772,-0.00386828,0.00738000
7.96156853,9.49512515,-0.37336267,2.33534689,0.00275080,-0.00142482,-0.00483730
7.97277254,9.42923762,-0.47585438,2.34266773,-0.00702304,-0.00020309,0.00127135
7.98396879,9.60493770,-0.60030861,2.38659275,0.00030734,0.00101864,-0.00239384
7.99516505,9.55369184,-0.61495028,2.34998857,-0.00457958,0.00224037,-0.00605903
8.00636131,9.55369184,-0.72476283,2.32070522,0.00030734,0.00101864,-0.00117211
8.01755756,9.56833352,-0.65155446,2.32070522,0.00763772,0.00224037,-0.00117211
8.02876353,9.54637101,-0.41728769,2.36463024,0.00641599,-0.00509001,0.00493654
8.03996950,9.54637101,-0.46121271,2.40123442,0.00397253,-0.00020309,0.00249308
8.05117548,9.47316264,-0.29283347,2.41587610,-0.00335785,0.00346210,0.00493654
8.06238145,9.59029603,-0.46853355,2.43051777,-0.00213612,-0.00386828,0.00249308
8.07360095,9.50244599,-0.47585438,2.29142187,0.00030734,-0.00142482,-0.00117211
8.08482045,9.48780431,-0.65155446,2.29142187,0.00030734,0.00468383,-0.00361557
8.09603995,9.56833352,-0.55638359,2.24017602,0.00275080,0.00224037,-0.00239384
8.10725945,9.54637101,-0.57834610,2.24749685,0.00641599,-0.00509001,0.00249308
8.11846495,9.55369184,-0.45389187,2.35730940,0.00519426,-0.00020309,0.00371481
8.12967044,9.46584180,-0.34407932,2.42319693,0.00885945,-0.00142482,0.00493654
8.14087594,9.48048348,-0.37336267,2.34266773,0.00275080,-0.00020309,0.00615827
8.15208143,9.45120013,-0.45389187,2.48908446,0.00152907,0.00224037,-0.00117211
8.16328245,9.48780431,-0.51245857,2.32802606,0.00030734,0.00101864,-0.00239384
8.17448348,9.50244599,-0.48317522,2.29142187,0.00030734,0.00101864,0.00004962
8.18568450,9.51708766,-0.55638359,2.26945936,0.00030734,0.00590556,-0.00117211
8.19688553,9.63422105,-0.60762944,2.29874271,0.00152907,-0.00142482,0.00127135
8.20807028,9.53172933,-0.47585438,2.29874271,0.00641599,-0.00142482,0.00127135
8.21925503,9.50244599,-0.50513773,2.44515944,0.00030734,-0.00142482,0.00127135
8.23043978,9.53172933,-0.51977940,2.37195108,0.00519426,0.00101864,0.00004962
8.24162453,9.48048348,-0.39532518,2.33534689,-0.00335785,0.00957075,0.00493654
8.25284225,9.42191678,-0.43925020,2.38659275,-0.00213612,0.00346210,-0.00728076
8.26405996,9.50244599,-0.49781689,2.38659275,0.00397253,0.00590556,-0.00239384
8.27527767,9.47316264,-0.57834610,2.30606355,-0.00213612,-0.00142482,-0.00239384
8.28649539,9.51708766,-0.57834610,2.24017602,0.00519426,0.00101864,-0.00239384
8.29769063,9.49512515,-0.52710024,2.37195108,0.00030734,-0.00020309,-0.00117211
8.30888587,9.49512515,-0.57102526,2.37927191,0.00519426,-0.00264655,0.00249308
8.32008111,9.50244599,-0.51245857,2.40855526,0.00885945,-0.00142482,0.00371481
8.33127636,9.49512515,-0.39532518,2.37927191,0.00641599,-0.00142482,0.00371481
8.34247535,9.56833352,-0.42460853,2.29874271,-0.00457958,0.00224037,-0.00361557
8.35367435,9.52440850,-0.45389187,2.24749685,0.00030734,-0.00509001,0.00127135
8.36487335,9.50976682,-0.47585438,2.39391359,0.00152907,0.00346210,-0.00117211
8.37607235,9.49512515,-0.62227112,2.37927191,0.00397253,0.00224037,0.00004962
8.38727236,9.47316264,-0.63691279,2.43051777,0.00397253,0.00224037,0.00127135
8.39847237,9.56833352,-0.60030861,2.34266773,-0.00335785,0.00224037,-0.00239384
8.40967238,9.54637101,-0.62227112,2.40855526,-0.00335785,-0.00509001,-0.00117211
8.42087239,9.53905017,-0.44657104,2.40123442,0.01252464,-0.00020309,0.00493654
8.43206918,9.53172933,-0.38068351,2.34998857,0.00397253,0.00101864,0.00127135
8.44326597,9.58297519,-0.40264602,2.27678020,0.00519426,-0.00020309,0.00004962
8.45446277,9.53172933,-0.51977940,2.32802606,0.00030734,0.00101864,-0.00605903
8.46565956,9.45852097,-0.65887530,2.33534689,-0.00702304,-0.00631174,-0.00361557
8.47683531,9.48780431,-0.59298777,2.36463024,0.00030734,-0.00020309,0.00004962
8.48801106,9.55369184,-0.70280032,2.43783861,-0.00091439,-0.00142482,-0.00117211
8.49918681,9.55369184,-0.60762944,2.34266773,0.00275080,0.00346210,0.00493654
8.51036257,9.46584180,-0.40996685,2.22553434,0.00885945,-0.00142482,0.00127135
8.52157056,9.53905017,-0.39532518,2.25481769,0.00763772,-0.00020309,0.00249308
8.53277856,9.60493770,-0.38800434,2.37927191,0.00275080,0.00224037,-0.00239384
8.54398656,9.50244599,-0.51977940,2.45980112,-0.00580131,-0.00142482,-0.00117211
8.55519456,9.61957937,-0.50513773,2.46712195,0.00397253,0.00590556,-0.00483730
8.56638855,9.51708766,-0.68815865,2.51836781,-0.00213612,0.00468383,-0.00117211
8.57758254,9.48048348,-0.67351697,2.32802606,0.00152907,0.00224037,-0.00239384
8.58877653,9.47316264,-0.65887530,2.35730940,0.00519426,0.00224037,0.00004962
8.59997052,9.50976682,-0.47585438,2.29142187,0.00275080,0.00468383,0.00615827
8.61117452,9.52440850,-0.39532518,2.37927191,0.00763772,0.00468383,0.00249308
8.62237853,9.46584180,-0.32211681,2.37927191,0.00275080,-0.00386828,0.00004962
8.63358253,9.52440850,-0.43192936,2.40123442,-0.00213612,-0.00020309,-0.00605903
8.64478654,9.49512515,-0.51245857,2.36463024,-0.00457958,-0.00142482,-0.00239384
8.65598977,9.53905017,-0.65155446,2.39391359,-0.01190997,0.00101864,-0.00605903
8.66719300,9.56101268,-0.65155446,2.38659275,0.00519426,0.00224037,0.00127135
8.67839622,9.44387929,-0.66619614,2.24749685,-0.00091439,0.00346210,-0.00483730
8.68959945,9.57565435,-0.51977940,2.28410104,-0.00457958,0.00224037,0.00738000
8.70082319,9.58297519,-0.46121271,2.35730940,0.00641599,-0.00264655,0.00127135
8.71204692,9.51708766,-0.28551263,2.41587610,0.00152907,-0.00020309,-0.00361557
8.72327065,9.45120013,-0.44657104,2.42319693,0.00275080,0.00224037,-0.00728076
8.73449439,9.45852097,-0.54174191,2.29874271,-0.00091439,0.00224037,-0.00361557
8.74567592,9.50976682,-0.63691279,2.36463024,-0.00702304,0.00346210,0.00127135
8.75685745,9.48780431,-0.60030861,2.15232598,-0.00335785,0.00712729,-0.00117211
8.76803899,9.53905017,-0.73940450,2.18893016,-0.00335785,0.00590556,0.00127135
8.77922052,9.57565435,-0.50513773,2.25481769,0.00152907,-0.00264655,0.00249308
8.79043877,9.55369184,-0.46853355,2.37927191,0.00885945,-0.00264655,0.00371481
8.80165702,9.45852097,-0.38800434,2.48908446,0.00397253,-0.00386828,-0.00239384
8.81287527,9.49512515,-0.39532518,2.45980112,0.00397253,-0.00020309,0.00127135
8.82409352,9.48780431,-0.62227112,2.32070522,-0.00335785,-0.00142482,-0.00483730
8.83526075,9.49512515,-0.58566693,2.23285518,0.00275080,0.00346210,-0.00117211
8.84642798,9.41459595,-0.61495028,2.15964681,0.00275080,0.00101864,-0.00605903
8.85759521,9.42923762,-0.50513773,2.25481769,-0.00213612,0.00101864,-0.00117211
8.86876243,9.48048348,-0.57102526,2.35730940,0.00763772,-0.00142482,0.00493654
8.87999493,9.53172933,-0.51977940,2.36463024,0.00397253,0.00101864,0.00127135
8.89122742,9.53172933,-0.43925020,2.51836781,0.00519426,-0.00631174,-0.00483730
8.90245992,9.53905017,-0.48317522,2.45248028,-0.00335785,0.00468383,0.00004962
8.91369241,9.48048348,-0.49049606,2.37195108,-0.00580131,-0.00020309,0.00127135
8.92486745,9.52440850,-0.42460853,2.18160932,-0.00824478,0.00224037,-0.00605903
8.93604249,9.61225854,-0.64423363,2.15232598,-0.00091439,0.00346210,-0.00239384
8.94721752,9.55369184,-0.62959195,2.24749685,-0.00335785,-0.00142482,0.00127135
8.95839256,9.50244599,-0.62959195,2.26945936,-0.00335785,-0.00631174,-0.00117211
8.96961826,9.43655846,-0.65887530,2.48908446,0.00030734,-0.00020309,-0.00239384
8.98084396,9.53172933,-0.48317522,2.47444279,0.00152907,-0.00142482,0.00249308
8.99206966,9.47316264,-0.42460853,2.46712195,0.00275080,0.00468383,0.00249308
9.00329536,9.42191678,-0.60762944,2.33534689,0.00030734,0.00712729,-0.00117211
9.01447392,9.48780431,-0.52710024,2.18893016,0.00152907,0.00468383,-0.00117211
9.02565247,9.48780431,-0.52710024,2.21089267,0.00030734,0.00224037,-0.00117211
9.03683102,9.56833352,-0.51977940,2.24749685,-0.00091439,-0.00264655,-0.00483730
9.04800957,9.52440850,-0.53442108,2.34266773,0.00275080,-0.00997694,0.00738000
9.05919957,9.56833352,-0.60762944,2.45248028,0.00152907,0.00224037,0.00249308
9.07038957,9.39995427,-0.54906275,2.40855526,-0.00213612,0.00101864,-0.00117211
9.08157957,9.50244599,-0.40264602,2.36463024,-0.00580131,-0.00020309,0.00249308
9.09276956,9.50244599,-0.55638359,2.22553434,0.00275080,-0.00142482,-0.00117211
9.10400152,9.48780431,-0.55638359,2.13036347,0.00030734,-0.00142482,-0.00117211
9.11523348,9.50244599,-0.54906275,2.26945936,0.00519426,0.00224037,-0.00239384
9.12646544,9.53172933,-0.54906275,2.35730940,-0.00335785,-0.00386828,-0.00483730
9.13769740,9.53172933,-0.57834610,2.40123442,0.00030734,0.00346210,0.00249308
9.14889443,9.52440850,-0.49049606,2.51104697,0.00397253,-0.00020309,0.00493654
9.16009146,9.51708766,-0.51977940,2.43783861,0.00397253,0.00224037,0.00127135
9.17128849,9.43655846,-0.37336267,2.21821351,-0.00091439,0.00346210,0.00004962
9.18248552,9.52440850,-0.46121271,2.27678020,-0.00457958,0.00224037,-0.00605903
9.19366252,9.50244599,-0.41728769,2.23285518,-0.00213612,0.00346210,-0.00605903
9.20483953,9.56833352,-0.53442108,2.29874271,0.00152907,-0.00753348,0.00371481
9.21601653,9.53172933,-0.66619614,2.35730940,0.00152907,-0.00020309,-0.00117211
9.22719353,9.47316264,-0.64423363,2.55497199,-0.00091439,0.00224037,-0.00117211
9.23839575,9.51708766,-0.49049606,2.24749685,-0.00091439,0.00346210,0.00127135
9.24959797,9.39995427,-0.49049606,2.26213853,0.00275080,0.00224037,0.00249308
9.26080018,9.48048348,-0.35872100,2.33534689,-0.00335785,0.00101864,0.00127135
9.27200240,9.53172933,-0.54906275,2.24017602,0.00397253,-0.00264655,-0.00605903
9.28320193,9.47316264,-0.46121271,2.53300948,0.00275080,-0.00142482,-0.00117211
9.29440147,9.44387929,-0.43925020,2.32802606,-0.00091439,-0.00020309,-0.00483730
9.30560100,9.48780431,-0.64423363,2.43051777,-0.00091439,-0.00509001,-0.00117211
9.31680053,9.44387929,-0.58566693,2.48176363,-0.00091439,-0.00020309,0.00127135
9.32800353,9.42191678,-0.49049606,2.32802606,0.00030734,0.00346210,0.00127135
9.33920652,9.59029603,-0.53442108,2.21089267,-0.00213612,-0.00020309,-0.00361557
9.35040951,9.45852097,-0.43192936,2.10840096,-0.00213612,0.00346210,-0.00117211
9.36161250,9.52440850,-0.41728769,2.21821351,-0.00091439,0.00346210,0.00004962
9.37280923,9.53172933,-0.39532518,2.26213853,0.00275080,-0.00386828,0.00004962
9.38400596,9.47316264,-0.50513773,2.24017602,0.00152907,-0.00142482,0.00249308
9.39520270,9.48780431,-0.60030861,2.56229283,0.00275080,-0.00264655,0.00004962
9.40639943,9.59029603,-0.62959195,2.36463024,0.00030734,0.00101864,0.00004962
9.41759342,9.52440850,-0.53442108,2.39391359,0.00275080,0.00224037,-0.00361557
9.42878741,9.48048348,-0.50513773,2.39391359,-0.00335785,-0.00020309,-0.00117211
9.43998140,9.53905017,-0.54906275,2.10840096,0.00275080,0.00468383,-0.00605903
9.45117539,9.52440850,-0.47585438,2.24749685,0.00519426,0.00346210,0.00249308
9.46238041,9.41459595,-0.46121271,2.36463024,0.00641599,-0.00020309,0.00371481
9.47358543,9.56833352,-0.49781689,2.56961367,0.00275080,0.00590556,-0.00239384
9.48479044,9.56833352,-0.33675849,2.30606355,0.00275080,-0.00509001,0.00615827
9.49599546,9.59029603,-0.49781689,2.45980112,0.00030734,-0.00142482,0.00738000
9.50719547,9.56833352,-0.69547948,2.51836781,-0.00457958,-0.00020309,0.00371481
9.51839548,9.62690021,-0.74672534,2.16696765,0.00152907,-0.00264655,0.00249308
9.52959549,9.55369184,-0.53442108,2.45248028,-0.00213612,0.00101864,-0.00361557
9.54079551,9.37799176,-0.40264602,2.30606355,0.00275080,-0.00509001,0.00004962
9.55199397,9.53172933,-0.65887530,2.38659275,0.00519426,-0.00264655,0.00249308
9.56319243,9.53172933,-0.49781689,2.43051777,-0.00091439,0.00224037,-0.00605903
9.57439089,9.56833352,-0.38800434,2.32070522,0.00641599,0.00101864,0.00004962
9.58558935,9.48780431,-0.44657104,2.56229283,-0.00457958,0.00346210,0.00493654
9.59679860,9.53172933,-0.70280032,2.26945936,-0.00213612,0.00101864,0.00004962
9.60800785,9.39263344,-0.66619614,2.23285518,0.00030734,0.00712729,-0.00117211
9.61921710,9.46584180,-0.52710024,2.23285518,-0.00213612,-0.00020309,-0.00361557
9.63042635,9.61957937,-0.36604183,2.59157618,0.00152907,-0.00509001,0.00249308
9.64162213,9.61225854,-0.33675849,2.26945936,0.00152907,-0.00386828,0.00127135
9.65281790,9.66350439,-0.72476283,2.46712195,-0.00091439,-0.00020309,0.00249308
9.66401368,9.64154188,-0.40996685,2.62818036,-0.00091439,-0.00386828,-0.00239384
9.67520946,9.59029603,-1.02491713,2.06447594,0.00275080,0.00224037,0.00127135
9.68640924,9.68546690,-0.90778375,2.35730940,0.00152907,0.00224037,-0.00239384
9.69760901,9.29746256,0.41728769,2.25481769,0.00030734,0.00101864,-0.00239384
9.70880878,9.66350439,-0.30747514,2.36463024,0.00275080,-0.00020309,0.00249308
9.72000855,10.01490455,-0.84921705,2.76727626,0.00397253,-0.00142482,-0.00239384
9.73120153,10.08811292,-0.42460853,2.25481769,0.00030734,-0.00386828,0.00371481
9.74239451,9.43655846,-0.33675849,2.25481769,0.00275080,0.00101864,0.00127135
9.75358748,9.38531260,-0.77600869,2.61353869,0.00030734,-0.00386828,0.00127135
9.76478046,9.81724196,-1.13472968,2.70138873,-0.00091439,0.00101864,-0.00605903
9.77598447,9.72939192,-0.66619614,2.24749685,0.00275080,0.00468383,-0.00239384
9.78718847,7.79669104,-0.26355012,1.85217168,-0.00457958,0.00224037,-0.00361557
9.79839247,9.62690021,-0.57102526,2.32802606,-0.00457958,0.00101864,0.00127135
9.80959648,142.20725213,-29.88365525,0.34407932,-0.00457958,-0.00509001,0.05991442
9.82080424,11.28140929,-2.76727626,5.65900674,-0.12308744,-0.05640269,-0.28705704
9.83201200,5.04405646,-1.52273403,2.31338438,-0.03023592,-0.13581518,-0.09646709
9.84321976,8.26522459,-3.96057263,1.04687964,-0.01435343,0.02300979,0.02204077
9.85442752,9.29746256,-0.24890845,-0.79797120,0.03940271,0.01201421,-0.01583287
9.86562574,9.63422105,-0.22694594,2.20357183,0.01008118,0.00346210,0.00127135
9.87682396,9.36335009,-1.44220482,2.84780546,-0.02168381,-0.01119867,0.00982347
9.88802218,9.23889587,2.65014287,2.43783861,-0.03023592,-0.01608559,0.00493654
9.89922041,9.57565435,-0.44657104,2.68674705,-0.00580131,-0.00875521,0.00371481
9.91043967,10.12471710,0.16837924,3.55792662,0.05284175,0.00834902,-0.00483730
9.92165893,9.58297519,-0.68815865,1.77896331,0.00519426,0.01079248,-0.00239384
9.93287820,9.70010858,-0.54906275,1.99126757,0.00763772,0.01201421,-0.00605903
9.94409746,9.29014172,-0.93706709,2.01323008,-0.02290554,0.00224037,0.00249308
9.95527172,9.40727511,-1.23722140,2.33534689,-0.01557516,-0.00509001,0.00004962
9.96644598,9.14372499,0.10249171,2.03519259,0.00641599,-0.01242040,-0.00117211
9.97762024,9.31942507,-1.93270088,2.70870956,0.01741156,-0.00509001,0.00004962
9.98879451,-26.47214536,16.42063663,3.03082638,0.01130291,-0.00142482,0.00615827
10.00000000,32.20436047,-1.51541319,5.66632758,-0.04367496,0.06943554,-0.01705460
10.01120549,65.96073831,0.25622928,4.14359355,-0.02901419,-0.02830289,-0.04637614
10.02241099,100.87380834,-8.39699965,11.01785917,0.03940271,0.00957075,-0.29438742
10.03361648,141.79728528,-2.22553434,9.34138758,-0.05344880,0.05355305,-0.02560672
10.04483771,175.10709208,-12.13794718,3.19188478,-0.17562185,0.00101864,0.31769955
10.05605894,174.14806248,-33.76369868,8.38235798,-0.09865283,0.06088343,-0.01216768
10.06728017,171.31489869,-30.17648871,8.14809120,-0.08277033,-0.03441155,-0.04148921
10.07850140,165.56072108,-7.26226997,-2.29142187,-0.09010072,-0.00020309,-0.04881960
10.08967292,175.24618798,-10.16132128,6.57411132,-0.17195666,-0.02219424,0.00371481
10.10084444,185.45875512,-6.66928220,-0.23426677,-0.11209187,-0.01730732,0.11977921
10.11201596,178.37950607,2.80388044,-10.84215909,-0.15485243,-0.10649364,0.00738000
10.12318748,163.06431578,7.01336152,7.78204937,-0.28802105,0.05110959,-0.25284859
10.13439596,159.30140573,-10.54200479,10.90804662,-0.11575706,0.03400536,-0.02927191
10.14560443,168.00588052,-15.97406559,18.71205850,-0.00946651,0.02911844,0.05014057
10.15681291,161.18286075,1.28846725,-2.32802606,-0.14263513,0.03156190,-0.02316326
10.16802138,159.57959753,29.40780087,-0.50513773,-0.24892568,-0.36916570,0.14421382
10.17922592,168.84777674,45.85040000,8.17737455,-0.18661742,0.02545325,0.11000536
10.19043046,167.88874713,10.42487140,13.52158531,-0.20127819,-0.10893710,-0.18931860
10.20163500,170.18748985,1.33971311,6.80105726,0.07361117,0.00957075,0.03547981
10.21283954,161.73924434,26.20127441,2.08643845,-0.31734259,-0.01608559,0.08679249
10.22405875,158.50343454,11.74262200,0.26355012,-0.31612086,0.04866613,-0.00239384
10.23527795,159.66012673,-12.42345981,-1.66915076,-0.35888142,0.03400536,-0.01583287
10.24649715,149.85020560,12.56987655,0.54174191,-0.24037357,0.00224037,0.05747095
10.25771636,160.98519816,-5.85666933,-12.19651388,-0.10353975,-0.20178862,0.01837558
10.27027690,161.68067765,-0.57102526,-3.38222654,-0.00457958,-0.16513671,-0.00850249
10.28283745,161.91494442,3.92396845,5.86399017,-0.00335785,-0.10038499,-0.01583287
10.29539800,160.37756872,3.13331809,0.12445422,0.04062444,-0.02463770,-0.00239384
10.30795854,156.19737099,4.78050634,-3.97521431,0.08216328,-0.07717211,0.03792327
10.31777704,157.44923406,0.22694594,0.01464167,0.13591942,-0.12359787,0.00982347
10.32759553,166.51242984,1.91805921,-3.92396845,0.16401922,-0.11748922,0.00738000
10.33741403,157.85920091,6.92551148,0.39532518,0.21899709,-0.06251135,0.01715385
10.34723252,168.90634343,6.73516973,2.41587610,0.31551380,-0.02341597,0.02692769
10.35845548,164.52848311,0.83457538,-1.68379243,0.35460918,-0.05518096,0.05502749
10.36967844,157.31745900,7.30619499,2.89905132,0.39736974,-0.09305461,0.01715385
10.38090140,174.09681662,0.27819179,-5.79078180,0.43524339,-0.05640269,0.02081904
10.39212435,154.90158290,-0.29283347,8.84357069,0.52320798,0.00224037,0.03670154
10.40330386,162.30294876,0.76868785,1.09812550,0.57574239,-0.03318982,0.05136230
10.41448337,161.05108569,4.43642702,4.97084809,0.63316372,-0.05518096,0.05747095
10.42566288,156.40967525,6.12021945,1.03223797,0.69302852,-0.03196808,0.04769711
10.43684238,159.00125143,2.58425534,3.52132243,0.83963618,0.02300979,0.05502749
10.44806337,157.88848426,0.63691279,2.18893016,0.90683135,-0.00142482,0.06724480
10.45928437,162.91057821,-0.38068351,1.29578809,0.98868729,-0.01364213,0.04891884
10.47050536,162.31026960,4.54623957,-0.40264602,1.05343901,-0.00997694,0.04525365
10.48172635,160.47273960,-0.95170877,-0.36604183,1.22203781,0.05721824,0.05991442
10.49290264,154.78444951,4.93424391,-2.06447594,1.29656337,0.04377920,0.05502749
10.50407892,162.10528617,1.62522574,-4.37786032,1.39918873,0.02300979,0.06357961
10.51525521,163.86228697,7.06460738,-8.05292033,1.50670102,0.02178806,0.07090999
10.52643150,163.86228697,6.55946965,2.45980112,1.71317347,0.08409631,0.05380576
10.53763402,160.12133944,3.96057263,-0.35140016,1.81091190,0.08531804,0.08068383
10.54883653,155.12852884,2.81120128,0.98831295,1.91109380,0.08287458,0.07335345
10.56003904,161.86369856,4.53891873,-0.00732084,2.00883224,0.07554420,0.05380576
10.57124156,158.03490099,4.51695622,0.80529203,2.22752200,0.11463957,0.06357961
10.58244479,155.42136230,4.97084809,-1.33239227,2.33259082,0.11463957,0.05869268
10.59364802,160.82413976,0.91510458,-0.57834610,2.46331598,0.09997881,0.06602307
10.60485125,161.81977354,2.36463024,-1.82288833,2.58426730,0.09875708,0.05136230
10.61605448,163.73783275,1.87413419,-1.51541319,2.83350031,0.12930034,0.05869268
10.62725198,168.49637658,0.79797120,0.06588753,2.95078644,0.13663072,0.07335345
10.63844949,131.10886375,2.86244713,-1.53737570,3.09495063,0.13418726,0.08679249
10.64964700,163.53284932,6.74249056,1.71307578,3.22323233,0.13907418,0.08679249
10.66084450,157.69814250,3.72630586,-1.28114642,3.48346093,0.15862187,0.08190556
10.67204076,162.66166976,2.51836781,0.92242542,3.63862070,0.16350879,0.06968826
10.68323702,167.87410546,2.65746371,-1.48612984,3.79378047,0.17206090,0.07824037
10.69443327,167.06149259,4.29001028,1.59594239,3.93550120,0.16106533,0.09045768
10.70562953,156.90017131,3.19920562,-1.39827980,4.27269881,0.16961744,0.09900979
10.71682274,160.28239784,3.22116813,-1.02491713,4.42541512,0.17572610,0.12344440
10.72801596,157.61029246,4.37786032,0.43192936,4.60012258,0.19649551,0.12833132
10.73920918,160.43613541,3.60185164,-0.29283347,4.76627793,0.17939129,0.14421382
10.75040239,158.03490099,3.11867642,-0.95170877,5.09003650,0.19283032,0.15032247
10.76161790,161.49765673,1.79360498,-0.91510458,5.24641800,0.20138244,0.15032247
10.77283341,160.73628972,1.44220482,0.75404618,5.41379508,0.20382590,0.13443997
10.78404891,160.42149374,1.58862156,-0.81993371,5.58361562,0.19038686,0.11000536
10.79526442,160.47273960,3.37490570,0.49049606,5.91836977,0.19649551,0.16742670
10.80645066,160.80217725,2.59889701,-0.15373757,6.10773799,0.20016071,0.21263072
10.81763691,160.53130629,1.35435478,-0.93706709,6.27389333,0.18794340,0.17842227
10.82882315,162.36151546,1.87413419,-1.39095897,6.47303540,0.18427821,0.21873938
10.84000939,160.19454780,4.27536861,0.24890845,6.87864992,0.17572610,0.21507419
10.85122013,165.94872542,1.25918391,0.46121271,7.06801814,0.17939129,0.18697438
10.86243087,162.45668633,0.96635044,-2.13036347,7.28548617,0.16106533,0.26760860
10.87364161,159.74065593,2.36463024,-0.39532518,7.47607612,0.16228706,0.22484803
10.88485235,160.12866027,0.46853355,-1.44220482,7.85481257,0.15495668,0.20285688
10.89604038,156.98802135,1.94734255,-2.29874271,8.09549347,0.16106533,0.18941785
10.90722841,164.39670805,1.47148817,-1.77896331,8.28608343,0.13663072,0.17231362
10.91841644,160.44345625,1.14937136,-4.18019773,8.54997721,0.13296553,0.24928264
10.92960447,167.03220925,0.76136701,-4.25340610,9.02034345,0.11097438,0.20163515
10.94083744,160.01152689,2.28410104,-4.02646016,9.25858089,0.12807861,0.21996111
10.95207042,156.68054621,1.51541319,-3.14063893,9.47971410,0.10120054,0.11611402
10.96330339,161.56354426,1.99858841,-3.28705566,9.74849481,0.14884803,0.27616071
10.97453636,163.70122856,-0.23426677,-5.18315236,10.22496970,0.12441342,0.15765285
10.98571187,163.86228697,1.58862156,-6.06897359,10.43877253,0.10120054,0.24073053
10.99688739,163.48160347,0.61495028,-6.41305291,10.66723613,0.10364400,0.13199651
11.00806290,162.50793219,0.70280032,-4.68533546,10.93968202,0.14396110,0.15032247
11.01923841,162.61042390,3.70434335,-10.98125499,11.36606596,0.11463957,0.03181461
11.03045994,162.33223211,0.70280032,-8.41164132,11.59330783,0.08409631,0.18330919
11.04168147,163.27662004,0.76136701,-7.35012001,11.80588893,0.08409631,0.22240457
11.05290300,158.54003872,0.95170877,-9.07051662,12.05878714,0.12074822,0.19919169
11.06412452,162.62506558,0.21230426,-9.87580865,12.53892722,0.15129149,0.16742670
11.07532799,163.40107426,2.29874271,-7.15245742,12.73318236,0.13540899,0.14787901
11.08653146,162.99842825,1.09812550,-11.04714252,13.03250633,0.17450437,0.04525365
11.09773493,162.83004900,1.50809235,-10.35166304,13.30373050,0.15984360,0.08190556
11.10893840,160.03348940,2.13768430,-8.00167447,13.93780861,0.19405205,0.32380820
11.12010390,162.36883629,1.22990056,-9.33406674,14.17848952,0.16717398,0.11855748
11.13126940,160.34828537,2.53300948,-10.49807977,14.51202194,0.16961744,0.32258647
11.14243490,162.66899060,1.73503829,-9.09247913,14.84311090,0.18305648,0.27371725
11.15360039,160.47273960,2.53300948,-11.64013029,15.39411134,0.17328264,0.08679249
11.16481543,162.83736984,1.94734255,-11.70601782,15.70931780,0.17328264,0.17964400
11.17603046,161.41712753,3.03082638,-8.85089152,16.01719388,0.13052207,0.10756190
11.18724549,159.60156004,0.87850040,-10.11007543,16.33973073,0.08409631,0.32747339
11.19846052,164.08923291,0.01464167,-10.49807977,16.86874003,0.07310074,0.14299209
11.20965552,160.42149374,-1.08348383,-8.75572065,17.20105072,0.05599651,0.26394340
11.22085053,161.42444836,0.28551263,-11.27408846,17.51014853,0.09387015,0.24073053
11.23204553,161.62211095,1.06152132,-9.12908332,17.77404231,-0.00264655,0.05258403
11.24324054,160.61183549,-0.80529203,-13.26535603,18.31771237,0.04866613,0.04281019
11.25446451,161.65139430,-1.32507144,-11.99885129,18.61337115,-0.00509001,0.15276593
11.26568848,162.98378657,-3.98985598,-14.38544404,18.88581704,0.08287458,0.05747095
11.27691245,158.01293848,-2.60621785,-15.33715280,19.13505006,0.02667498,-0.12823208
11.28813642,160.96323565,-1.96930506,-14.52453993,19.61274668,0.09264842,-0.05370652
11.29931492,161.65871514,-4.80246885,-14.72952336,19.88885776,0.04988786,0.08190556
11.31049341,166.23423805,-1.74967996,-15.95942392,20.20406423,0.14640456,0.08679249
11.32167190,161.82709438,-3.39686821,-16.14976567,20.47773185,0.17694783,-0.25162686
11.33285040,161.50497757,-4.11431020,-18.28012914,21.08126671,0.25147339,-0.13922765
11.34404868,163.92085366,-4.30465196,-16.31082408,21.30239992,0.52636274,0.07457518
11.35524696,158.78162633,-3.31633901,-17.44555376,21.65181484,0.43228950,-0.14411457
11.36644524,162.03939864,-2.92101383,-19.03417532,21.87539152,0.29423395,-0.19176206
11.37764353,165.65589195,-3.00154303,-17.16736197,22.47892637,0.41640700,0.11611402
11.38883728,162.53721554,-2.26945936,-20.51298432,22.81123706,0.47138487,0.23584360
11.40003103,161.57818593,-2.58425534,-19.54663388,22.98594452,0.37486816,0.19063958
11.41122478,163.16680749,-2.02787175,-22.95814377,23.32192040,0.49826294,0.04158846
11.42241853,164.77007072,-6.32520287,-21.55986397,23.83260374,0.28690357,0.29570840
11.43364102,163.49624514,-3.62381415,-21.58914731,24.13314944,0.31989029,-0.04881960
11.44486350,163.53284932,-5.17583152,-22.43104353,24.42147783,0.33332933,-0.01216768
11.45608598,166.56367570,-7.29155331,-23.50720652,24.76478409,0.37242470,-0.19420552
11.46730846,163.13752414,-5.77614013,-21.95518914,25.25103282,0.26979934,0.30426051
11.47850746,163.56213267,-6.52286546,-23.65362325,25.55646544,0.28446011,0.39833376
11.48970646,162.07600283,-6.16414447,-25.54239911,26.15022645,0.22826051,0.66589273
11.50090545,166.27084223,-6.83034060,-26.45018285,26.19543048,0.28079492,0.37145569
11.51210445,166.62224239,-5.82006515,-28.29503369,26.68412267,0.28201665,0.31647782
11.52329421,164.96041247,-5.14654817,-27.41653329,26.97489453,0.19405205,0.18819612
11.53448397,161.49765673,-4.78050634,-29.59082178,27.16670621,0.18672167,0.31159089
11.54567373,165.39234183,-6.00308606,-28.49269628,27.51856459,0.32966414,0.28837801
11.55686349,165.27520845,-7.83329523,-26.99924560,28.23694211,0.31744683,-0.08058459
11.56805795,164.71150402,-5.43938164,-28.37556290,28.38843669,0.28446011,-0.08302805
11.57925242,166.84918833,-4.86103554,-30.03007198,28.89301137,0.34065971,-0.01583287
11.59044689,171.54184463,-7.24030746,-30.66698477,29.12025324,0.35532048,0.28471282
11.60164136,169.46272702,-5.46866499,-34.27615724,29.86062191,0.41518527,-0.33836972
11.61286640,171.76146973,-10.49807977,-31.68458107,30.07442475,0.32111202,0.04769711
11.62409145,161.40248585,-6.97675734,-35.18394099,30.39329640,0.52391928,-0.11479304
11.63531649,162.09796534,-13.22143101,-32.28488967,30.67307268,0.26246896,0.23828706
11.64654154,168.18158060,-10.27113383,-34.63487824,31.23995562,0.25880377,0.19796996
11.65771902,166.28548391,-10.93000913,-33.45622354,31.53439266,0.43595469,-0.24551820
11.66889650,163.46696179,-12.26240141,-37.08735852,31.85448605,0.23314743,-0.21986186
11.68007398,164.80667490,-11.96224710,-40.47690590,32.10738426,0.35898567,-0.34936529
11.69125146,162.91057821,-9.37067093,-41.48718135,32.64861086,0.27835146,-0.16121880
11.70244968,166.38797562,-11.26676762,-41.08453534,32.86485715,0.53247140,-0.01583287
11.71364790,164.56508729,-7.71616184,-40.22067661,33.27291513,0.53735832,-0.13434073
11.72484612,165.24592510,-8.70447479,-41.94839406,33.50626565,0.32355548,-0.06592382
11.73604435,168.65011415,-11.97688878,-42.96599036,34.22586490,0.62532291,0.15765285
11.74723285,166.92239670,-12.75289746,-44.03483251,34.39690717,0.36631605,-0.06348036
11.75842136,167.27379686,-13.20678934,-45.61613323,34.72066575,0.56057120,0.35557319
11.76960987,165.59732526,-14.59042746,-45.77719164,35.07130239,0.49459775,0.08190556
11.78079838,163.17412833,-13.77049376,-47.66596750,35.67361552,0.46405449,0.50218085
11.79200339,165.13611255,-11.66941364,-49.40832662,36.04379985,0.33455106,0.07579691
11.80320841,166.39529646,-12.75289746,-49.19602236,36.22217250,0.27590800,0.20774380
11.81441343,164.80667490,-13.91691049,-51.54601093,36.45918821,0.25636031,0.18086573
11.82561845,169.62378542,-12.89199336,-50.82856893,37.07616211,0.36387259,-0.08791497
11.83681518,167.99855968,-13.30928105,-51.35566917,37.44756817,0.39075066,0.24073053
11.84801191,163.97209952,-13.39713109,-54.29132467,37.77132675,0.55934947,-0.17832303
11.85920864,167.52270530,-15.48356954,-53.53727850,37.80187001,0.37486816,-0.33592626
11.87040538,163.65730354,-13.65336037,-50.80660642,38.60210347,0.47505006,0.23828706
11.88161641,165.89747956,-15.60070292,-49.84025598,38.95029666,0.28690357,-1.03597782
11.89282745,165.94872542,-18.82187105,-52.97357408,39.39500655,0.44695026,-0.53506833
11.90403849,165.50215438,-16.05459480,-54.24739965,39.55505324,0.27102107,-0.23696609
11.91524953,166.18299219,-20.73260942,-56.96343006,39.83971644,0.33088587,0.19308304
11.92645353,170.01178977,-17.46751627,-58.64722249,39.88369874,0.63143156,-0.89914401
11.93765754,165.03362084,-21.71360153,-59.85516054,39.89347258,0.30400780,-0.10624093
11.94886154,165.20932092,-22.20409759,-63.30327460,39.89347258,0.81713460,-0.43732989
11.96006554,167.65448036,-20.63743855,-62.48334090,39.89347258,0.25880377,0.54738488
11.97128278,165.83159203,-22.81172703,-67.55668070,39.89347258,0.66564002,-0.11234958
11.98250002,167.02488841,-24.12215680,-66.73674700,39.89347258,0.73650038,-1.69571228
11.99371725,167.72768873,-22.28462679,-66.54640524,39.89347258,0.41762873,-0.00728076
12.00493449,165.34841681,-19.62716309,-69.99451931,39.89347258,0.41885046,-0.31637857
12.01611125,165.18735841,-18.06050404,-70.44841118,39.89347258,0.19160859,-0.50085987
12.02728802,165.69249614,-23.47060233,-72.40307457,39.89347258,0.87822112,0.14543555
12.03846478,163.05699494,-19.41485882,-69.65776082,39.89347258,0.50070640,0.11611402
12.04964155,166.82722582,-22.90689791,-72.11024111,39.89347258,0.60821868,0.46675066
12.06084704,164.32349968,-19.35629213,-72.53484963,39.89347258,0.44328507,1.19856722
12.07205254,168.38656403,-20.88634699,-72.98142067,39.89347258,0.34921182,0.30670397
12.08325803,165.61928777,-24.77371126,-73.96973362,39.89347258,0.63631849,0.76363117
12.09446353,169.17721439,-23.43399815,-75.65352605,39.89347258,0.71206578,0.17475708
12.10567951,165.15075422,-22.02839751,-79.40911526,39.89347258,0.90509919,-0.33348280
12.11689550,169.52129371,-24.64925704,-79.97281968,39.89347258,0.77193057,0.11489229
12.12811148,168.23282646,-24.85424046,-81.78838717,39.89347258,0.87089074,0.80272654
12.13932747,167.24451351,-30.22773457,-83.96999650,39.89347258,0.94541630,-0.66579349
12.15050745,171.08063192,-29.78848437,-82.48386665,39.89347258,0.64487060,0.27371725
12.16168743,169.47004785,-29.41512170,-86.25409753,39.89347258,0.53735832,-0.04881960
12.17286742,168.54762243,-29.67867182,-85.96126407,39.89347258,0.93075553,0.76363117
12.18404740,167.03953008,-26.02557433,-85.93198072,39.89347258,0.44206334,0.94811247
12.19525689,162.96182406,-26.82354552,-89.26296140,39.89347258,0.16717398,-0.18687514
12.20646638,173.13046618,-29.37851752,-91.02728304,39.89347258,0.65342271,0.98720785
12.21767586,165.72910032,-30.05203449,-92.76232132,39.89347258,0.76704365,1.90961436
12.22888535,165.67785446,-29.68599266,-96.62040224,39.89347258,0.73650038,0.27371725
12.24009711,170.86832766,-25.53507827,-91.23226646,39.89347258,0.56912331,1.18512818
12.25130886,167.23719267,-29.53957593,-93.88973017,39.89347258,0.76215672,1.02019457
12.26252061,172.06894487,-30.97445991,-91.96435013,39.89347258,0.59600138,0.09778806
12.27373236,169.11864769,-35.13269513,-94.74626806,39.89347258,0.86844728,0.81127866
12.28493613,166.54903403,-30.66698477,-95.15623491,39.89347258,0.77070884,0.71720541
12.29613990,167.51538447,-34.10777800,-92.75500049,39.89347258,0.11830476,1.10327224
12.30734366,171.70290303,-39.23236366,-97.74049025,39.89347258,0.66564002,-0.02071980
12.31854743,166.20495470,-38.16352151,-94.79751392,39.89347258,0.64975752,0.89435633
12.32974243,167.04685092,-31.64797688,-101.94997133,39.89347258,0.40907662,-0.94801323
12.34093744,166.65152574,-36.38455820,-100.20029137,39.89347258,0.36875951,-1.85209378
12.35213244,166.66616741,-28.88070063,-103.09202185,39.89347258,0.34921182,-0.11479304
12.36332744,163.69390773,-36.63346665,-103.34093030,39.89347258,0.53735832,1.62861635
12.37453097,167.60323450,-34.18830720,-104.95151436,39.89347258,0.20871282,0.72820099
12.38573450,166.38797562,-37.94389641,-103.81678468,39.89347258,0.24658646,0.32869512
12.39693803,162.51525303,-36.19421645,-104.38780994,39.89347258,0.36998124,-1.08973396
12.40814155,162.82272817,-36.15029143,-101.70838372,39.89347258,-0.04418539,-0.19542725
12.41930926,163.00574908,-35.74764541,-104.54886835,39.89347258,-0.02585943,0.19063958
12.43047696,160.74361055,-35.63051203,-108.26053254,39.89347258,0.29056876,1.41481351
12.44164467,157.84455924,-41.17238538,-107.98966158,39.89347258,0.86600382,-1.26810661
12.45281237,163.82568279,-42.95866952,-110.96924210,39.89347258,0.88432977,-0.60104177
12.46404666,160.31900203,-41.79465649,-108.04090744,39.89347258,0.06821381,-0.05614998
12.47528094,159.08910147,-38.03174645,-113.44368489,39.89347258,0.59600138,0.59869756
12.48651522,162.55185721,-44.21785343,-109.88575827,39.89347258,0.97595956,1.42580909
12.49774951,160.23115199,-43.60290315,-119.12465414,39.89347258,0.54468870,1.40992659
12.50894773,161.34391916,-35.26447019,-121.37215099,39.89347258,1.03338089,1.03607707
12.52014595,162.35419462,-37.95853808,-117.43354087,39.89347258,0.54957562,-0.24551820
12.53134418,160.61915633,-33.15606924,-116.69413637,39.89347258,-0.03441155,2.65364822
12.54254240,156.99534218,-36.75792087,-116.57700298,39.89347258,1.02116359,-1.34629736
12.55370992,156.30718354,-45.90164586,-111.52562569,39.89347258,0.08531804,1.93404897
12.56487745,156.49020445,-42.18266084,-121.07199669,39.89347258,1.23618815,0.49362873
12.57604498,160.39221039,-37.84140470,-118.72932896,39.89347258,1.12256722,0.87236518
12.58721250,152.06841911,-37.87800888,-120.93290079,39.89347258,0.67174867,-0.05614998
12.59841377,160.36292705,-38.23672988,-121.65766362,39.89347258,-0.72346753,-2.10132680
12.60961503,159.10374314,-44.30570347,-123.36341857,39.89347258,1.14333663,1.13259377
12.62081629,159.68208924,-36.94826263,-123.43662693,39.89347258,0.64364887,-2.25037792
12.63201755,159.96760187,-43.79324490,-125.29611944,39.89347258,0.53491486,0.20530034
12.64321703,156.67322537,-45.30133726,-131.76773905,39.89347258,0.80491729,3.90714369
12.65441650,156.49752529,-41.42861466,-127.69003303,39.89347258,2.00465662,0.00004962
12.66561598,157.93973011,-44.29838263,-134.52769447,39.89347258,-0.59762930,0.71231849
12.67681545,155.41404147,-42.56334434,-127.47772877,39.89347258,1.34736562,-1.15692914
12.68801695,155.27494557,-45.05974965,-134.15433180,39.89347258,0.92709034,0.53394584
12.69921845,158.41558450,-48.25163443,-138.72253388,39.89347258,0.49581948,2.72328685
12.71041995,152.18555250,-48.32484280,-135.05479471,39.89347258,1.12623241,-0.03904575
12.72162145,158.23988442,-42.17534000,-140.57470555,39.89347258,1.40234349,0.37267742
12.73282743,157.00266302,-45.36722478,-140.85289735,39.89347258,0.48848910,-2.72196588
12.74403340,157.22228812,-49.96471021,-140.14277619,39.89347258,0.23192570,0.28104763
12.75523937,157.68350083,-50.59430216,-144.41082396,39.89347258,0.45916757,-1.75924226
12.76644534,151.81218983,-42.51209849,-142.88076910,39.89347258,0.54468870,-2.02191432
12.77764410,155.87525417,-49.45957248,-144.69633659,39.89347258,0.68030078,-1.32308448
12.78884286,154.05968668,-51.04087320,-143.78123201,39.89347258,-0.27753591,0.23217841
12.80004162,154.15485756,-50.26486451,-147.00972098,39.89347258,0.59844484,0.99942515
12.81124038,154.03040334,-54.16687045,-148.07124229,39.89347258,1.46465175,1.09349840
12.82243317,159.93831852,-52.96625324,-152.92495700,39.89347258,0.10975265,-1.10439473
12.83362597,155.97042505,-54.54023312,-152.58819851,39.89347258,0.86478208,0.03303634
12.84481877,158.19595940,-61.10702360,-150.77263102,39.89347258,-0.30441398,-1.94861049
12.85601157,164.22100797,-58.77167671,-155.18709553,39.89347258,0.31744683,2.48016249
12.86721057,152.69801106,-44.95725793,-154.28663262,39.89347258,0.80736075,4.05741653
12.87840956,152.25144003,-55.77013368,-155.99238756,39.89347258,-0.01242040,-0.71832790
12.88960856,157.71278418,-57.80532627,-157.62493414,39.89347258,0.59477965,0.55105007
12.90080756,147.49289620,-50.36003539,-166.25620056,39.89347258,-0.16880190,-0.53506833
12.91202426,157.91776760,-57.97370551,-164.58704980,39.89347258,0.79880864,1.58463405
12.92324096,153.97915748,-52.81251567,-169.27238526,39.89347258,0.88555150,-2.94432083
12.93445766,153.43741557,-52.09507368,-163.35714924,39.89347258,0.16106533,2.28102042
12.94567436,147.71984214,-57.98834719,-170.64870256,39.89347258,0.65953136,1.08005936
12.95685738,150.67746015,-51.67778599,-174.77033360,39.89347258,0.48360218,-1.37561889
12.96804041,153.53990728,-56.88290085,-171.35882371,39.89347258,-0.01975078,0.45697682
12.97922343,166.08050048,-56.81701332,-172.59604511,39.89347258,-0.80410175,3.02627601
12.99040645,162.18581538,-55.90922958,-178.37950607,39.89347258,0.60088830,-3.69446334
13.00163245,151.14599369,-58.86684759,-172.32517415,39.89347258,1.05903723,0.57426295
13.01285845,162.42740299,-56.00440045,-178.05006842,39.89347258,0.95641187,2.06966105
13.02408445,159.30872657,-58.13476392,-180.46594452,39.89347258,0.36753778,-0.81484461
13.03531045,153.64239899,-61.72197388,-181.75441177,39.89347258,1.91669203,1.42336563
13.04651046,154.27931178,-61.51699046,-188.38708978,39.89347258,1.43288676,-2.94920775
13.05771047,158.33505529,-66.23160927,-184.37527129,39.89347258,1.01138974,-0.31026992
13.06891048,157.25889230,-58.77899755,-185.51732181,39.89347258,1.15311048,-1.69693401
13.08011049,159.21355569,-62.60047428,-184.66078392,39.89347258,-0.96048325,0.91634748
13.09130901,159.06713896,-72.03703274,-185.56856767,39.89347258,0.72672654,2.63043534
13.10250753,157.11979641,-69.29171899,-187.59643942,39.89347258,0.31744683,-0.25773551
13.11370605,157.50047991,-73.97705445,-194.50730923,39.89347258,0.01201421,1.89495359
13.12490457,162.03939864,-69.62115664,-191.24953692,39.89347258,1.32048755,1.46979138
13.13607705,151.08010616,-66.41463018,-198.77535701,39.89347258,0.13907418,-1.01765186
13.14724952,150.66281847,-65.20669213,-197.62598565,39.89347258,1.57949441,-0.64991099
13.15842199,156.47556278,-74.82627151,-199.79295330,39.89347258,0.27224280,-0.19054033
13.16959447,153.41545306,-71.59046170,-204.19277613,39.89347258,-0.14436729,-0.63280676
13.18082422,150.94101027,-64.21837919,-200.40790358,39.89347258,-0.14803248,3.13623175
13.19205397,154.12557421,-63.44969134,-206.05226865,39.89347258,1.56239019,1.77522400
13.20328373,156.42431692,-73.54512509,-202.26007526,39.89347258,1.92768760,2.31400714
13.21451348,152.35393174,-69.43813572,-201.98920430,39.89347258,1.06514588,-0.52040756
13.22569174,147.09025018,-77.53498107,-203.36552159,39.89347258,1.07247627,0.82227423
13.23686999,152.97620286,-79.43107777,-205.27625996,39.89347258,-0.89206634,2.09043047
13.24804825,154.01576166,-69.83346090,-213.74646798,39.89347258,1.75175841,-2.67798358
13.25922650,149.41095540,-72.79107892,-217.68507810,39.89347258,1.34370043,-3.80930600
13.27043897,153.22511130,-77.98887294,-213.32185945,39.89347258,1.42799983,-0.88326151
13.28165144,158.07882601,-82.70349175,-216.15502324,39.89347258,1.03704608,-1.93761491
13.29286391,143.85444038,-79.26269852,-220.74518782,39.89347258,0.40785489,0.70132292
13.30407637,171.99573650,-75.24355920,-220.84035870,39.89347258,-0.27753591,-1.71037305
13.31526762,146.10925807,-71.04139895,-218.57089934,39.89347258,0.59477965,1.24743644
13.32645887,153.28367800,-80.17048227,-221.93116336,39.89347258,2.26366348,3.98655617
13.33765012,151.51203553,-83.15738363,-222.34113022,39.89347258,1.72610207,-2.69508781
13.34884137,152.19287333,-71.44404497,-228.06602448,39.89347258,2.19158138,0.76851809
13.36005163,154.79177035,-80.76347004,-226.38223205,39.89347258,0.21115628,-0.40312144
13.37126189,155.80936664,-91.87650009,-230.37208803,39.89347258,-0.39482204,0.21140899
13.38247216,156.32182521,-75.66816772,-230.54046728,39.89347258,1.08591530,-1.21190701
13.39368242,148.37139660,-71.80276597,-232.64154740,39.89347258,0.85622997,-0.27850493
13.40488994,154.03772417,-76.34168470,-235.55524039,39.89347258,0.39075066,1.55775598
13.41609746,152.14894831,-83.04757108,-236.91691601,39.89347258,0.47993698,0.55593699
13.42730498,157.42727155,-78.20117721,-226.22849448,39.89347258,1.04315473,-0.21864013
13.43851250,148.00535476,-83.56735048,-238.40304585,39.89347258,1.55750326,-2.98341620
13.44969898,151.76826481,-81.89087888,-238.90818358,39.89347258,0.29667741,0.19063958
13.46088547,147.93214640,-73.30353748,-238.19806242,39.89347258,0.89532535,0.04647538
13.47207195,147.20738357,-74.52611720,-239.22297955,39.89347258,-0.38749165,0.20285688
13.48325843,160.92663147,-83.20862948,-239.85989234,39.89347258,1.13356279,1.93771416
13.49445868,140.05492615,-73.91848776,-238.63731262,39.89347258,1.15555394,0.58037160
13.50565892,152.52963182,-99.76836201,-239.85989234,39.89347258,-1.06066515,0.46675066
13.51685917,153.37152804,-88.30393180,-239.85989234,39.89347258,1.45854310,-0.13067554
13.52805942,154.72588282,-81.13683271,-239.85989234,39.89347258,1.93501798,1.20711933
13.53925365,149.60861799,-78.29634808,-239.85989234,39.89347258,1.29360948,-0.39701278
13.55044788,149.68182636,-86.88368949,-239.85989234,39.89347258,0.97107264,-0.13311900
13.56164211,149.41095540,-82.22763737,-239.85989234,39.89347258,0.00346210,-0.78307961
13.57283634,149.99662234,-89.53383236,-239.85989234,39.89347258,1.06270242,1.15336319
13.58406913,144.82811165,-80.71954502,-239.85989234,39.89347258,0.68030078,-2.10621372
13.59530193,148.30550907,-100.51508735,-239.85989234,39.89347258,0.41396354,3.75198391
13.60653472,146.49726241,-81.45162868,-239.85989234,39.89347258,0.83301709,0.29570840
13.61776751,147.63199210,-86.45908096,-239.85989234,39.89347258,-0.27387072,0.19186131
13.62894148,142.55133145,-86.20285168,-239.85989234,39.89347258,0.23681262,-0.38968240
13.64011544,144.26440723,-103.13594687,-239.85989234,39.89347258,1.11157164,-2.15141775
13.65128940,143.12235671,-94.96589316,-239.85989234,39.89347258,-0.12237614,0.11489229
13.66246337,148.33479241,-90.61731618,-239.85989234,39.89347258,0.52269755,-3.53197319
13.67368287,150.06250987,-89.72417411,-239.85989234,39.89347258,0.84401267,0.22362630
13.68490237,152.00253158,-79.39447358,-239.85989234,39.89347258,0.40418970,2.63898745
13.69612187,142.44151890,-93.45047997,-239.85989234,39.89347258,0.26979934,2.31034195
13.70734137,145.68464954,-92.33039196,-239.85989234,39.89347258,1.09324568,2.51070575
13.71854317,145.34789106,-90.25859519,-239.85989234,39.89347258,0.24780819,0.78806578
13.72974497,148.20301735,-89.86327001,-239.85989234,39.89347258,0.47138487,-1.80811148
13.74094677,140.21598456,-92.33771280,-239.85989234,39.89347258,0.34799009,-3.49654300
13.75214857,143.10039420,-86.75191443,-239.85989234,39.89347258,0.69129636,-0.27483974
13.76333207,140.66255559,-107.74075313,-239.85989234,39.89347258,-0.29708360,-2.23083023
13.77451557,143.73730699,-100.63954157,-239.85989234,39.89347258,0.64975752,-0.05981517
13.78569907,152.19287333,-100.06119548,-239.85989234,39.89347258,0.82446498,-1.89729781
13.79688257,143.25413177,-94.24113033,-239.85989234,39.89347258,-0.26776207,0.74652694
13.80810082,137.61708754,-96.40809798,-239.85989234,39.89347258,0.31989029,-0.62914157
13.81931907,156.81964210,-95.36853918,-239.85989234,39.89347258,0.79147826,-1.07629493
13.83053732,138.83234643,-101.41555026,-239.85989234,39.89347258,1.06758934,0.55227180
13.84175557,145.63340369,-97.99671954,-239.85989234,39.89347258,1.45121271,2.32133753
13.85293281,140.97735157,-112.85801796,-239.85989234,39.89347258,1.84949685,2.76971261
13.86411005,144.00085711,-105.17846030,-239.85989234,39.89347258,0.18916513,1.52354753
13.87528729,137.42674579,-97.40373177,-239.85989234,39.89347258,0.51048025,1.53698656
13.88646454,136.48235786,-99.73175783,-239.85989234,39.89347258,0.13907418,0.82716115
13.89766276,142.96129831,-99.95138293,-239.85989234,39.89347258,0.30889472,-0.42389085
13.90886098,140.74308480,-116.07918609,-239.85989234,39.89347258,-0.24699265,-4.44216239
13.92005920,135.28174065,-89.24099889,-239.85989234,39.89347258,-0.14436729,0.73675310
13.93125743,132.24359343,-100.26617890,-239.85989234,39.89347258,0.80247383,0.75874425
13.94246519,134.69607372,-105.51521879,-239.85989234,39.89347258,1.67845458,0.09778806
13.95367295,140.50881802,-104.38048911,-239.85989234,39.89347258,1.52696000,-2.31268617
13.96488070,145.92623715,-103.94123891,-239.85989234,39.89347258,1.30582679,0.75263560
13.97608846,140.03296364,-97.80637778,-239.85989234,39.89347258,0.14640456,-2.10621372
13.98730069,137.62440838,-116.34273621,-239.85989234,39.89347258,1.70411092,1.23399740
13.99851292,136.21880774,-102.14031309,-239.85989234,39.89347258,1.12989760,-0.92357862
14.00972515,137.82207097,-108.91940783,-239.85989234,39.89347258,1.11645856,4.46669624
14.02093738,141.11644747,-111.65007991,-239.85989234,39.89347258,1.89958780,1.35494872
14.03213990,133.34171893,-128.45140004,-239.85989234,39.89347258,1.75908879,0.11977921
14.04334241,139.40337169,-108.96333285,-239.85989234,39.89347258,2.18058581,1.83264534
14.05454493,138.73717555,-96.92787738,-239.85989234,39.89347258,0.86478208,-2.31635136
14.06574744,140.18670121,-105.17113946,-239.85989234,39.89347258,-0.13337171,-1.46724868
14.07692617,130.54515933,-103.71429297,-239.85989234,39.89347258,0.44939372,-2.81481740
14.08810490,136.84839969,-107.20633206,-239.85989234,39.89347258,0.41762873,-2.83558681
14.09928364,138.62736300,-109.46114975,-239.85989234,39.89347258,0.95641187,-3.71156757
14.11046237,132.39733100,-105.75680640,-239.85989234,39.89347258,0.52636274,1.23888432
14.12166238,135.45744073,-110.39821684,-239.85989234,39.89347258,1.79696244,-4.06586940
14.13286239,139.00804651,-112.52858031,-239.85989234,39.89347258,1.15311048,-1.93150626
14.14406240,133.94202754,-126.24782821,-239.85989234,39.89347258,0.85867343,-0.74887116
14.15526241,135.83080340,-108.51676182,-239.85989234,39.89347258,0.22459532,0.86136961
14.16648668,135.24513647,-103.80214301,-239.85989234,39.89347258,0.84889959,-2.99563351
14.17771095,130.83799280,-108.92672867,-239.85989234,39.89347258,2.91851102,-0.90525266
14.18893522,131.79702240,-116.91376147,-239.85989234,39.89347258,0.31133818,-1.24000681
14.20015949,135.71367001,-121.78943868,-239.85989234,39.89347258,0.81346940,-2.00114490
14.21133000,127.82180809,-114.51984788,-239.85989234,39.89347258,-0.19812343,-0.91869170
14.22250050,126.92134518,-124.87151092,-239.85989234,39.89347258,1.22519258,-0.33103934
14.23367101,132.19234758,-127.14097028,-239.85989234,39.89347258,0.57278850,2.21260351
14.24484152,146.61439580,-121.60641777,-239.85989234,39.89347258,0.72917000,-0.59982004
14.25605053,133.63455240,-129.95217156,-239.85989234,39.89347258,0.33332933,-2.25770830
14.26725954,131.39437638,-117.05285736,-239.85989234,39.89347258,0.79269999,1.27797970
14.27846855,132.04593085,-120.21545880,-239.85989234,39.89347258,0.73283519,0.39222510
14.28967756,131.21135547,-123.18771849,-239.85989234,39.89347258,1.01383320,-2.85635623
14.30089730,136.10167435,-130.64765104,-239.85989234,39.89347258,1.44632579,-2.24426926
14.31211704,132.08985586,-119.46141263,-239.85989234,39.89347258,0.52514101,1.08128109
14.32333678,143.86176122,-134.33735272,-239.85989234,39.89347258,0.02789671,2.19061237
14.33455652,136.58484957,-125.76465299,-239.85989234,39.89347258,1.63447228,-0.11112785
14.34573478,153.09333624,-123.19503932,-239.85989234,39.89347258,2.12072101,1.32562719
14.35691303,131.37241387,-118.35596629,-239.85989234,39.89347258,-0.59762930,-0.87348767
14.36809129,131.98004332,-124.63724414,-239.85989234,39.89347258,1.35713947,0.58281506
14.37926954,124.07353972,-126.97259104,-239.85989234,39.89347258,1.71632823,-2.74151357
14.39046705,125.77929466,-124.35905235,-239.85989234,39.89347258,0.85378651,0.19552650
14.40166456,123.40002275,-130.80138861,-239.85989234,39.89347258,-0.74057176,-4.42505816
14.41286206,129.28597542,-127.89501646,-239.85989234,39.89347258,2.54710495,6.63893303
14.42405957,128.67102514,-129.24937124,-239.85989234,39.89347258,0.79636518,0.81372212
14.43526554,131.84826826,-131.78970156,-239.85989234,39.89347258,1.29727467,-2.36277712
14.44647151,124.35905235,-126.71636176,-239.85989234,39.89347258,0.40296796,-1.04452994
14.45767748,125.75001132,-123.50251446,-239.85989234,39.89347258,-1.03623054,1.09349840
14.46888345,139.99635946,-131.98004332,-239.85989234,39.89347258,0.54346697,0.69765772
14.48007798,126.37960327,-143.62749444,-239.85989234,39.89347258,0.13907418,4.53144796
14.49127251,124.95204012,-128.77351686,-239.85989234,39.89347258,1.79329725,0.07824037
14.50246704,121.96513876,-138.67860886,-239.85989234,39.89347258,0.58378408,-2.63888821
14.51366156,122.17744303,-129.27865459,-239.85989234,39.89347258,1.57338576,-2.75739606
14.52486956,138.57611715,-140.42096798,-239.85989234,39.89347258,1.98266547,0.91390402
14.53607756,127.97554566,-120.17153378,-239.85989234,39.89347258,1.47442559,0.30670397
14.54728556,120.97682581,-131.82630575,-239.85989234,39.89347258,1.84460993,-1.68960363
14.55849355,131.70185152,-134.72535706,-239.85989234,39.89347258,1.35836120,0.88580422
14.56968629,129.45435467,-132.29483929,-239.85989234,39.89347258,0.28201665,-2.39820730
14.58087903,128.14392490,-131.81166407,-239.85989234,39.89347258,1.86415761,1.73124171
14.59207177,123.09986845,-142.66114400,-239.85989234,39.89347258,0.74627423,-2.08666603
14.60326451,122.29457641,-140.09153033,-239.85989234,39.89347258,1.54284250,0.50828950
14.61448801,149.64522218,-137.56584169,-239.85989234,39.89347258,2.10606025,4.26388898
14.62571150,126.43816996,-145.76517875,-239.85989234,39.89347258,-0.17002363,-0.64380234
14.63693500,117.89475358,-128.84672522,-239.85989234,39.89347258,0.87822112,-0.43122124
14.64815849,123.16575598,-135.68438667,-239.85989234,39.89347258,-1.07532591,-0.89181363
14.65933526,129.00046279,-144.87935751,-239.85989234,39.89347258,0.64487060,3.23274846
14.67051202,118.23883290,-141.16769332,-239.85989234,39.89347258,1.46220829,-1.69693401
14.68168879,116.55504047,-145.47966612,-239.85989234,39.89347258,0.38342028,-1.33896698
14.69286555,125.34004446,-141.88513532,-239.85989234,39.89347258,2.08651256,-2.00236663
14.70406300,125.42789450,-139.87922607,-239.85989234,39.89347258,0.80369556,1.03485534
14.71526045,118.62683725,-148.10784648,-239.85989234,39.89347258,0.19771724,-4.28822435
14.72645789,121.35750932,-138.12954611,-239.85989234,39.89347258,0.57645369,-2.77327856
14.73765534,125.01792765,-149.09615943,-239.85989234,39.89347258,0.63998368,2.71962166
14.74885660,118.72932896,-146.59243329,-239.85989234,39.89347258,0.14518283,-2.66576628
14.76005787,123.96372717,-145.64804536,-239.85989234,39.89347258,1.67845458,-0.61203735
14.77125913,124.13942725,-149.03027190,-239.85989234,39.89347258,1.67967631,-0.47764699
14.78246039,121.55517191,-156.35110856,-239.85989234,39.89347258,1.32048755,1.68725941
14.79368544,122.43367231,-144.89399918,-239.85989234,39.89347258,2.20868561,0.45208990
14.80491048,114.58573541,-156.65126286,-239.85989234,39.89347258,0.13663072,0.65978408
14.81613553,119.30035422,-149.89413062,-239.85989234,39.89347258,0.13663072,-4.03288268
14.82736057,122.64597657,-146.89990843,-239.85989234,39.89347258,0.30645126,-2.41775499
14.83853507,134.49841113,-161.49765673,-239.85989234,39.89347258,0.41274181,-3.07748945
14.84970957,113.86097258,-160.91931063,-239.85989234,39.89347258,0.13785245,0.22973495
14.86088407,122.98273506,-175.53902144,-239.85989234,39.89347258,1.54406423,-1.34141044
14.87205857,120.24474215,-135.85276591,-239.85989234,39.89347258,1.00161590,-1.17158990
14.88328803,122.49955984,-163.13752414,-239.85989234,39.89347258,-0.04296366,-0.41289528
14.89451748,114.62233959,-148.83260931,-239.85989234,39.89347258,0.48726737,-0.45076892
14.90574694,111.84042166,-143.81051536,-239.85989234,39.89347258,-0.12237614,-0.65113272
14.91697639,106.98670696,-157.32477983,-239.85989234,39.89347258,1.76886264,0.68299696
14.92815143,126.24050737,-160.38488956,-239.85989234,39.89347258,0.93319899,0.58648025
14.93932647,143.70070281,-164.46259558,-239.85989234,39.89347258,0.56179293,-3.52464280
14.95050150,117.47746589,-143.61285277,-239.85989234,39.89347258,0.32599894,-0.13189727
14.96167654,124.91543594,-152.55159433,-239.85989234,39.89347258,0.12196996,1.67748557
14.97287500,116.71609888,-147.33915863,-239.85989234,39.89347258,-0.93482691,-0.70855405
14.98407346,133.19530220,-172.06162403,-239.85989234,39.89347258,1.11523683,-1.20091144
14.99527192,101.62785452,-161.76120685,-239.85989234,39.89347258,1.56972057,0.66589273
15.00647038,104.53422667,-156.49752529,-239.85989234,39.89347258,1.25695757,3.01894563
15.01769090,106.98670696,-163.62069936,-239.85989234,39.89347258,0.73650038,1.14236762
15.02891141,99.43892436,-160.22383115,-239.85989234,39.89347258,-0.20301035,-0.14167111
15.04013193,104.73921010,-160.46541876,-239.85989234,39.89347258,1.22519258,-2.48250671
15.05135244,89.00673212,-149.71843054,-239.85989234,39.89347258,1.59782037,-4.81234672
15.06252593,95.99081029,-149.12544277,-239.85989234,39.89347258,3.55014567,1.10815916
15.07369941,87.66701901,-157.16372143,-239.85989234,39.89347258,0.43595469,-2.53259766
15.08487290,109.14635377,-175.31939635,-239.85989234,39.89347258,0.74627423,0.13566170
15.09604639,101.81819627,-165.79498785,-239.85989234,39.89347258,0.89776881,2.84790336
15.10726488,88.34785682,-156.25593768,-239.85989234,39.89347258,0.82079979,-0.36524779
15.11848336,105.78608974,-161.39516502,-239.85989234,39.89347258,1.47809078,2.12097373
15.12970185,84.12373407,-177.19353053,-239.85989234,39.89347258,1.11890202,0.90046498
15.14092034,83.48682128,-160.61183549,-239.85989234,39.89347258,-0.50477778,0.24317399
15.15211064,92.26450443,-172.50819507,-239.85989234,39.89347258,0.99550725,-1.59797384
15.16330093,81.40038283,-169.97518558,-239.85989234,39.89347258,2.93928043,-1.29376295
15.17449123,95.47835173,-168.32799733,-239.85989234,39.89347258,-1.39541930,0.17597881
15.18568152,80.17048227,-160.72896888,-239.85989234,39.89347258,1.09568914,0.83693500
15.19688326,79.48232362,-156.19005015,-239.85989234,39.89347258,1.20808835,-0.45932104
15.20808500,90.15610347,-169.93126056,-239.85989234,39.89347258,1.68578496,2.27735523
15.21928674,92.31575029,-168.10837223,-239.85989234,39.89347258,0.75849153,0.28471282
15.23048848,84.07980905,-182.44989125,-239.85989234,39.89347258,1.42189118,-1.73969458
15.24168700,86.06375578,-168.59886829,-239.85989234,39.89347258,0.19893898,-2.63644475
15.25288552,73.45727505,-157.80795505,-239.85989234,39.89347258,2.19646830,1.17657607
15.26408404,79.05771510,-163.34250757,-239.85989234,39.89347258,0.29789914,-1.39516658
15.27528256,77.74728533,-174.54338766,-239.85989234,39.89347258,1.06025896,4.04275577
15.28648555,72.28594119,-174.92407117,-239.85989234,39.89347258,1.10179780,3.18998790
15.29768854,74.49683386,-185.33430090,-239.85989234,39.89347258,0.73772212,-0.21741840
15.30889153,68.50838947,-179.47031073,-239.85989234,39.89347258,2.13904697,4.04397750
15.32009453,59.07915185,-172.89619941,-239.85989234,39.89347258,0.46527622,-0.50941199
15.33129227,68.03985592,-171.47595710,-239.85989234,39.89347258,0.88066458,-0.27606147
15.34249002,74.59932557,-177.19353053,-239.85989234,39.89347258,1.50252539,-0.05370652
15.35368776,66.77335118,-176.47608854,-239.85989234,39.89347258,1.20931008,-2.54848015
15.36488551,75.87315115,-151.79022732,-239.85989234,39.89347258,2.41027114,-1.25588931
15.37607801,67.11010967,-172.17875742,-239.85989234,39.89347258,0.94908149,-2.95775986
15.38727051,61.43646125,-172.14947407,-239.85989234,39.89347258,1.81162320,1.02508149
15.39846301,80.80007422,-173.28420375,-239.85989234,39.89347258,1.73098899,-0.57049851
15.40965551,74.08686700,-173.67952893,-239.85989234,39.89347258,1.46465175,4.22601534
15.42085499,67.99593090,-179.41906487,-239.85989234,39.89347258,1.40112176,-0.32493068
15.43205446,65.25793799,-180.20239440,-239.85989234,39.89347258,-0.79188444,-2.86979527
15.44325393,68.96960218,-158.31309278,-239.85989234,39.89347258,2.63873474,-1.77390303
15.45445341,69.61383580,-181.54942834,-239.85989234,39.89347258,0.90632092,-2.36155539
15.46565890,66.15840090,-158.72305964,-239.85989234,39.89347258,2.10972544,-0.01583287
15.47686440,64.88457532,-187.64768528,-239.85989234,39.89347258,0.54102351,-1.75069015
15.48806989,74.03562115,-182.94038731,-239.85989234,39.89347258,-0.10038499,-3.12880213
15.49927539,68.13502680,-208.99524498,-239.85989234,39.89347258,-0.03685501,-0.89303536
15.51047713,77.99619378,-160.94859398,-239.85989234,39.89347258,1.46465175,4.07207730
15.52167886,61.68536970,-169.83608969,-239.85989234,39.89347258,1.01261147,-1.62729537
15.53288060,72.35914955,-165.72177948,-239.85989234,39.89347258,1.51229924,3.54673319
15.54408234,60.32369408,-171.27829451,-239.85989234,39.89347258,1.64791132,-0.92968727
15.55528414,65.90949245,-183.46016671,-239.85989234,39.89347258,-0.29586187,-1.86553282
15.56648594,71.97846605,-191.57165373,-239.85989234,39.89347258,0.94052937,0.26883033
15.57768774,71.25370322,-180.89055304,-239.85989234,39.89347258,-0.78088887,-2.55581053
15.58888954,69.40885238,-171.86396144,-239.85989234,39.89347258,0.43839815,-1.43181850
15.60010952,75.17767167,-175.26815049,-239.85989234,39.89347258,0.98451167,2.55102286
15.61132950,76.89074744,-169.26506443,-239.85989234,39.89347258,-0.95559632,-2.73418318
15.62254947,62.53458675,-180.07794017,-239.85989234,39.89347258,1.78718859,0.21507419
15.63376945,67.82023082,-174.10413746,-239.85989234,39.89347258,-0.09671980,1.73979382
15.64497119,57.07324261,-200.91304131,-239.85989234,39.89347258,0.67907905,1.62983808
15.65617293,59.81855635,-195.31260126,-239.85989234,39.89347258,1.31560063,0.95177766
15.66737467,61.77321974,-166.65884658,-239.85989234,39.89347258,2.44081440,3.60415453
15.67857641,60.56528169,-174.22859168,-239.85989234,39.89347258,1.26917487,-3.61016394
15.68975592,60.35297743,-200.51039529,-239.85989234,39.89347258,1.22397084,-1.08606877
15.70093542,52.02186531,-168.57690578,-239.85989234,39.89347258,0.68152251,0.15154420
15.71211493,59.12307687,-186.43242640,-239.85989234,39.89347258,-0.24454919,-1.81177667
15.72329444,74.90680071,-176.70303447,-239.85989234,39.89347258,2.86842007,-1.26688488
15.73451543,62.74689102,-176.68107196,-239.85989234,39.89347258,1.83239262,1.55653425
15.74573642,56.68523826,-192.04018728,-239.85989234,39.89347258,2.44081440,0.55838045
15.75695741,53.52995766,-176.18325507,-239.85989234,39.89347258,1.06270242,-0.32615242
15.76817840,50.62358551,-180.53183205,-239.85989234,39.89347258,0.28446011,-0.56194640
15.77934945,58.12744308,-191.12508270,-239.85989234,39.89347258,1.52207308,0.84548711
15.79052049,46.44338777,-185.24645086,-239.85989234,39.89347258,0.77926095,1.70314191
15.80169153,48.39073033,-186.08834707,-239.85989234,39.89347258,-0.53409931,-2.81115220
15.81286258,45.08171216,-185.15860082,-239.85989234,39.89347258,2.78534239,2.99084583
15.82409430,52.09507368,-189.71216122,-239.85989234,39.89347258,0.07676593,-4.16360784
15.83532602,45.28669558,-182.75736639,-239.85989234,39.89347258,-0.32640513,1.46123927
15.84655774,35.43284944,-185.69302189,-239.85989234,39.89347258,1.40600869,3.59560241
15.85778946,39.75214307,-177.88168918,-239.85989234,39.89347258,1.73098899,0.61580178
15.86898673,40.75509769,-186.29333050,-239.85989234,39.89347258,1.48175598,-0.48131219
15.88018399,43.22954048,-180.96376141,-239.85989234,39.89347258,-0.32029648,-0.55339428
15.89138126,40.30120582,-175.23154631,-239.85989234,39.89347258,1.44510406,-0.61814600
15.90257853,50.34539371,-189.98303218,-239.85989234,39.89347258,1.92646587,1.50766503
15.91377878,26.09146186,-187.09862253,-239.85989234,39.89347258,-0.78821925,-2.62789263
15.92497903,33.89547374,-188.37244811,-239.85989234,39.89347258,2.04375199,-0.18931860
15.93617928,31.19408501,-182.40596623,-239.85989234,39.89347258,-0.56219911,-0.75620154
15.94737953,27.25547489,-182.19366197,-239.85989234,39.89347258,1.72854553,2.73306070
15.95855725,34.74469079,-175.04120455,-239.85989234,39.89347258,-0.04418539,0.02570596
15.96973497,37.40215450,-181.64459922,-239.85989234,39.89347258,0.99062032,1.99880068
15.98091269,108.94869118,-201.93063761,-239.85989234,39.89347258,1.10912818,-1.33408006
15.99209040,37.98782143,-185.96389285,-239.85989234,39.89347258,-0.37649608,-2.14286563
16.00328642,26.85282887,-193.71665887,-239.85989234,39.89347258,2.59108725,-1.23878508
16.01448244,28.25110867,-177.58153487,-239.85989234,39.89347258,1.74198457,0.37756434
16.02567846,32.58504398,-199.77831163,-239.85989234,39.89347258,0.19649551,0.82471769
16.03687447,20.13230082,-179.94616511,-239.85989234,39.89347258,1.35225254,-0.21986186
16.04809821,23.47060233,-193.40186290,-239.85989234,39.89347258,0.40418970,-0.26017897
16.05932194,15.84961137,-195.63471808,-239.85989234,39.89347258,1.50130366,0.58892371
16.07054567,18.52171675,-215.02029355,-239.85989234,39.89347258,1.05659377,-1.08484704
16.08176941,15.71051547,-173.05725782,-239.85989234,39.89347258,1.37424369,0.30670397
16.09295118,12.93591838,-184.69738811,-239.85989234,39.89347258,0.58500581,-0.21253148
16.10413295,9.98562120,-187.63304361,-239.85989234,39.89347258,0.85134305,-0.53140314
16.11531472,9.67082523,-188.76777329,-239.85989234,39.89347258,1.48664290,0.84548711
16.12649649,18.59492512,-177.20085137,-239.85989234,39.89347258,0.12563515,0.12710959
16.13769025,3.06010972,-188.89954835,-239.85989234,39.89347258,0.06210516,-0.52407275
16.14888400,10.92268830,-187.49394771,-239.85989234,39.89347258,-0.11504576,-0.04637614
16.16007775,15.16145272,-181.81297846,-239.85989234,39.89347258,1.19587104,0.53028065
16.17127150,11.28873013,-197.56009812,-239.85989234,39.89347258,1.75175841,3.11424061
16.18250173,-4.60480626,-194.22179660,-239.85989234,39.89347258,1.65401997,0.99453823
16.19373196,-3.05278889,-186.65205150,-239.85989234,39.89347258,1.44876925,-0.18198822
16.20496219,-9.23889587,-194.01681318,-239.85989234,39.89347258,0.52147582,-3.58817279
16.21619242,-5.27832323,-178.95785217,-239.85989234,39.89347258,1.41944772,3.12157099
16.22736520,2.54765116,-183.74567934,-239.85989234,39.89347258,0.87944285,-2.46540248
16.23853797,0.97367128,-192.42819162,-239.85989234,39.89347258,1.82384051,0.84182192
16.24971074,-11.64013029,-170.80244013,-239.85989234,39.89347258,2.40782768,0.27371725
16.26088351,-8.44824551,-182.11313277,-239.85989234,39.89347258,1.64058094,1.44046985
16.27211398,-13.17750599,-172.85959523,-239.85989234,39.89347258,2.39561037,2.01834837
16.28334445,-3.74826837,-186.13959293,-239.85989234,39.89347258,0.04622267,2.34088521
16.29457492,-1.31042976,-185.79551361,-239.85989234,39.89347258,0.97229437,-1.28521084
16.30580539,-19.92731739,-180.96376141,-239.85989234,39.89347258,1.83850127,1.18390645
16.31697041,-21.37684305,-179.35317735,-239.85989234,39.89347258,1.38401754,1.63472500
16.32813543,-18.19959994,-184.27277958,-239.85989234,39.89347258,3.36444264,2.55713151
16.33930045,-17.32109954,-182.91842480,-239.85989234,39.89347258,2.93928043,-0.89670055
16.35046548,-24.92744883,-180.22435691,-239.85989234,39.89347258,2.45914036,1.72757652
16.36167622,-16.53777002,-179.08230639,-239.85989234,39.89347258,-0.15414113,-0.06592382
16.37288696,-23.06063548,-182.89646229,-239.85989234,39.89347258,1.98999585,0.91756921
16.38409770,-27.02120811,-185.24645086,-239.85989234,39.89347258,0.75238288,-3.24486652
16.39530843,-36.86041259,-200.27612852,-239.85989234,39.89347258,1.81651013,1.57608194
16.40651667,-38.96149271,-180.14382770,-239.85989234,39.89347258,1.11401510,0.84548711
